wall_time,carla_frame,gps_timestamp,latitude,longitude,altitude,imu_timestamp,accel_x,accel_y,accel_z,gyro_x_deg_s,gyro_y_deg_s,gyro_z_deg_s,compass_deg,speed_kmh,throttle,brake,steer,reverse,hand_brake
2026-05-13T18:27:39.784,870,15.93288556508196,-0.0002503829962396971,-0.0004703515579215484,1.9565644264221191,15.886051293680794,0.0012311008758842945,-0.0025093606673181057,12.360390663146973,5.844336339437435e-05,-2.7552360499067434e-06,3.814569632221136e-09,180.4325199079582,0.8336202621463319,0.0,0.0,0.0,False,False
2026-05-13T18:27:39.839,871,15.93288556508196,-0.0002503829962396971,-0.0004703515579215484,1.9565644264221191,15.93288556508196,-0.0012311008758842945,0.0025093606673181057,9.945547103881836,4.956193079875872e-05,-2.7762266930269047e-06,-3.164747324696643e-09,180.4325199079582,0.6915943980221139,0.0,0.0,0.0,False,False
2026-05-13T18:27:40.047,875,16.19633274547232,-0.0002503829962396971,-0.0004703515579215484,1.9915175437927246,16.14951104320062,0.0,0.0,9.206562995910645,-2.4217077582793582e-05,-1.9560926286414652e-05,-3.0013344008563993e-09,180.4325199079582,0.20128923208583924,0.0,0.0,0.0,False,False
2026-05-13T18:27:40.094,876,16.19633274547232,-0.0002503829962396971,-0.0004703515579215484,1.9915175437927246,16.19633274547232,0.0024810656905174255,-0.0025187924038618803,9.28726577758789,-6.300106548047613e-05,2.5801652926870163e-06,2.7453307594067305e-09,180.4325199079582,0.1455024495729677,0.0,0.0,0.0,False,False
2026-05-13T18:27:40.278,880,16.42620852611435,-0.0002503829962396971,-0.0004703515579215484,1.9976117610931396,16.379930928567774,0.0,0.0,9.65585994720459,3.510852628734233e-05,1.7124554227098725e-06,-2.231728428334639e-09,180.4325199079582,0.03630016520630347,0.0,0.0,0.0,False,False
2026-05-13T18:27:40.326,881,16.475163243929273,-0.0002503829962396971,-0.0004703515579215484,1.997984528541565,16.42620852611435,-0.0012311008758842945,0.0025093606673181057,9.692500114440918,-7.99985098829521e-05,2.799223579151258e-06,-8.836435679176292e-11,180.4325199079582,0.023705852782774657,0.0,0.0,0.0,False,False
2026-05-13T18:27:40.518,885,16.666269093970186,-0.0002503829962396971,-0.0004703515579215484,1.9986404180526733,16.666269093970186,-0.0012499644653871655,9.431736543774605e-06,9.771562576293945,3.240198396983117e-05,3.1482154121288945e-06,-1.0445686618860323e-08,180.4325199079582,0.004480636463955934,0.0,0.0,0.0,False,False
2026-05-13T18:27:40.565,886,16.666269093970186,-0.0002503829962396971,-0.0004703515579215484,1.9986404180526733,16.666269093970186,-0.0012499644653871655,9.431736543774605e-06,9.771562576293945,3.240198396983117e-05,3.1482154121288945e-06,-1.0445686618860323e-08,180.4325199079582,0.0038079644326030416,0.0,0.0,0.0,False,False
2026-05-13T18:27:40.757,890,16.905569836715586,-0.0002503829962396971,-0.0004703515579215484,1.9987000226974487,16.85831771067751,1.886347308754921e-05,0.002499928930774331,9.8100004196167,0.0,0.0,0.0,180.4325199079582,0.0,0.0,0.0,0.0,False,False
2026-05-13T18:27:40.805,891,16.905569836715586,-0.0002503829962396971,-0.0004703515579215484,1.9987000226974487,16.905569836715586,0.0024810656905174255,-0.0025187924038618803,9.809922218322754,0.0,0.0,0.0,180.4325199079582,0.0,0.0,0.0,0.0,False,False
2026-05-13T18:27:40.996,895,17.14501080311311,-0.0002503829962396971,-0.0004703515579215484,1.9987000226974487,17.14501080311311,0.0,0.0,9.810078620910645,0.0,0.0,0.0,180.4325199079582,0.0,0.0,0.0,0.0,False,False
2026-05-13T18:27:41.046,896,17.194515980998403,-0.0002503829962396971,-0.0004703515579215484,1.9987000226974487,17.194515980998403,-0.0012311008758842945,0.0025093606673181057,9.810078620910645,0.0,0.0,0.0,180.4325199079582,0.0,0.0,0.0,0.0,False,False
2026-05-13T18:27:41.232,900,17.333860732833273,-0.0002503829962396971,-0.0004703515579215484,1.9987000226974487,17.333860732833273,-0.0024433378130197525,0.007518650498241186,9.81015682220459,0.0,0.0,0.0,180.4325199079582,0.0,0.0,0.0,0.0,False,False
2026-05-13T18:27:41.278,901,17.380804054657347,-0.0002503829962396971,-0.0004703515579215484,1.9987000226974487,17.380804054657347,-1.886347308754921e-05,-0.002499928930774331,9.810078620910645,0.0,0.0,0.0,180.4325199079582,0.0,0.0,0.0,0.0,False,False
2026-05-13T18:27:41.468,905,17.5669816511072,-0.0002503829962396971,-0.0004703515579215484,1.9987000226974487,17.5669816511072,-0.0012499644653871655,9.431736543774605e-06,9.8100004196167,0.0,0.0,0.0,180.4325199079582,0.0,0.0,0.0,0.0,False,False
2026-05-13T18:27:41.516,906,17.664633002350456,-0.0002503829962396971,-0.0004703515579215484,1.9987000226974487,17.664633002350456,1.886347308754921e-05,0.002499928930774331,9.81015682220459,0.0,0.0,0.0,180.4325199079582,0.0,0.0,0.0,0.0,False,False
2026-05-13T18:27:41.702,910,17.806036334703094,-0.0002503829962396971,-0.0004703515579215484,1.9987000226974487,17.806036334703094,0.0,0.0,9.8100004196167,0.0,0.0,0.0,180.4325199079582,0.0,0.0,0.0,0.0,False,False
2026-05-13T18:27:41.749,911,17.897973533938057,-0.0002503829962396971,-0.0004703515579215484,1.9987000226974487,17.85076531417144,1.886347308754921e-05,0.002499928930774331,9.810078620910645,0.0,0.0,0.0,180.4325199079582,0.0,0.0,0.0,0.0,False,False
2026-05-13T18:27:41.934,915,18.036162998745567,-0.0002503829962396971,-0.0004703515579215484,1.9987000226974487,18.036162998745567,0.0012499644653871655,-9.431736543774605e-06,9.810078620910645,0.0,0.0,0.0,180.4325199079582,0.0,0.0,0.0,0.0,False,False
2026-05-13T18:27:41.981,916,18.082817808011896,-0.0002503829962396971,-0.0004703515579215484,1.9987000226974487,18.082817808011896,0.0012499644653871655,-9.431736543774605e-06,9.809844017028809,0.0,0.0,0.0,180.4325199079582,0.0,0.0,0.0,0.0,False,False
2026-05-13T18:27:42.168,920,18.271641828338034,-0.0002503829962396971,-0.0004703515579215484,1.9987000226974487,18.271641828338034,-0.0012499644653871655,9.431736543774605e-06,9.810078620910645,0.0,0.0,0.0,180.4325199079582,0.0,0.0,0.0,0.0,False,False
2026-05-13T18:27:42.215,921,18.316888023386127,-0.0002503829962396971,-0.0004703515579215484,1.9987000226974487,18.316888023386127,0.0024810656905174255,-0.0025187924038618803,9.809765815734863,0.0,0.0,0.0,180.4325199079582,0.0,0.0,0.0,0.0,False,False
2026-05-13T18:27:42.400,925,18.504441023091204,-0.0002503829962396971,-0.0004703515579215484,1.9987000226974487,18.504441023091204,-1.886347308754921e-05,-0.002499928930774331,9.809922218322754,0.0,0.0,0.0,180.4325199079582,0.0,0.0,0.0,0.0,False,False
2026-05-13T18:27:42.448,926,18.59642596937192,-0.0002503829962396971,-0.0004703515579215484,1.9987000226974487,18.59642596937192,0.0012688279384747148,0.0024904971942305565,9.8100004196167,0.0,0.0,0.0,180.4325199079582,0.0,0.0,0.0,0.0,False,False
2026-05-13T18:27:42.632,930,18.73498899511469,-0.0002503829962396971,-0.0004703515579215484,1.9987000226974487,18.73498899511469,-1.886347308754921e-05,-0.002499928930774331,9.809844017028809,0.0,0.0,0.0,180.4325199079582,0.0,0.0,0.0,0.0,False,False
2026-05-13T18:27:42.680,931,18.78114053256286,-0.0002503829962396971,-0.0004703515579215484,1.9987000226974487,18.78114053256286,0.0,0.0,9.8100004196167,0.0,0.0,0.0,180.4325199079582,0.0,0.0,0.0,0.0,False,False
2026-05-13T18:27:42.868,935,19.016353529164917,-0.0002503829962396971,-0.0004703515579215484,1.9987000226974487,19.016353529164917,0.0,0.0,9.8100004196167,0.0,0.0,0.0,180.4325199079582,0.0,0.0,0.0,0.0,False,False
2026-05-13T18:27:42.919,936,19.067994863013155,-0.0002503829962396971,-0.0004703515579215484,1.9987000226974487,19.016353529164917,0.0,0.0,9.8100004196167,0.0,0.0,0.0,180.4325199079582,0.0,0.0,0.0,0.0,False,False
2026-05-13T18:27:43.108,940,19.210861675659544,-0.0002503829962396971,-0.0004703515579215484,1.9987000226974487,19.210861675659544,0.0012499644653871655,-9.431736543774605e-06,9.8100004196167,0.0,0.0,0.0,180.4325199079582,0.0,0.0,0.0,0.0,False,False
2026-05-13T18:27:43.158,941,19.30677307046426,-0.0002503829962396971,-0.0004703515579215484,1.9987000226974487,19.25751558713091,1.886347308754921e-05,0.002499928930774331,9.8100004196167,0.0,0.0,0.0,180.4325199079582,0.0,0.0,0.0,0.0,False,False
2026-05-13T18:27:43.345,945,19.44764759413374,-0.0002503829962396971,-0.0004703515579215484,1.9987000226974487,19.44764759413374,-0.0012499644653871655,9.431736543774605e-06,9.810078620910645,0.0,0.0,0.0,180.4325199079582,0.0,0.0,0.0,0.0,False,False
2026-05-13T18:27:43.393,946,19.54142976946605,-0.0002503829962396971,-0.0004703515579215484,1.9987000226974487,19.49439191467536,0.0,0.0,9.810078620910645,0.0,0.0,0.0,180.4325199079582,0.0,0.0,0.0,0.0,False,False
2026-05-13T18:27:43.577,950,19.680252026984817,-0.0002503829962396971,-0.0004703515579215484,1.9987000226974487,19.680252026984817,-0.0012499644653871655,9.431736543774605e-06,9.81015682220459,0.0,0.0,0.0,180.4325199079582,0.0,0.0,0.0,0.0,False,False
2026-05-13T18:27:43.624,951,19.773290682802326,-0.0002503829962396971,-0.0004703515579215484,1.9987000226974487,19.725529574076063,0.0,0.0,9.8100004196167,0.0,0.0,0.0,180.4325199079582,0.0,0.0,0.0,0.0,False,False
2026-05-13T18:27:43.815,955,19.917659145066864,-0.0002503829962396971,-0.0004703515579215484,1.9987000226974487,19.917659145066864,-0.0024433378130197525,0.007518650498241186,9.810078620910645,0.0,0.0,0.0,180.4325199079582,0.0,0.0,0.0,0.0,False,False
2026-05-13T18:27:43.862,956,19.96419546029938,-0.0002503829962396971,-0.0004703515579215484,1.9987000226974487,19.96419546029938,0.002499928930774331,-1.886347308754921e-05,9.8100004196167,0.0,0.0,0.0,180.4325199079582,0.0,0.0,0.0,0.0,False,False
2026-05-13T18:27:44.049,960,20.197734289089567,-0.0002503829962396971,-0.0004703515579215484,1.9987000226974487,20.197734289089567,0.0,0.0,9.8100004196167,0.0,0.0,0.0,180.4325199079582,0.0,0.0,0.0,0.0,False,False
2026-05-13T18:27:44.095,961,20.197734289089567,-0.0002503829962396971,-0.0004703515579215484,1.9987000226974487,20.197734289089567,0.0,0.0,9.8100004196167,0.0,0.0,0.0,180.4325199079582,0.0,0.0,0.0,0.0,False,False
2026-05-13T18:27:44.280,965,20.429056883076555,-0.0002503829962396971,-0.0004703515579215484,1.9987000226974487,20.382866099695093,-0.0012311008758842945,0.0025093606673181057,9.810078620910645,0.0,0.0,0.0,180.4325199079582,0.0,0.0,0.0,0.0,False,False
2026-05-13T18:27:44.327,966,20.429056883076555,-0.0002503829962396971,-0.0004703515579215484,1.9987000226974487,20.429056883076555,1.886347308754921e-05,0.002499928930774331,9.809922218322754,0.0,0.0,0.0,180.4325199079582,0.0,0.0,0.0,0.0,False,False
2026-05-13T18:27:44.514,970,20.614956606397755,-0.0002503829962396971,-0.0004703515579215484,1.9987000226974487,20.614956606397755,0.0024810656905174255,-0.0025187924038618803,9.809922218322754,0.0,0.0,0.0,180.4325199079582,0.0,0.0,0.0,0.0,False,False
2026-05-13T18:27:44.561,971,20.71016377232445,-0.0002503829962396971,-0.0004703515579215484,1.9987000226974487,20.66264972857607,-0.002462201751768589,0.005018721334636211,9.8100004196167,0.0,0.0,0.0,180.4325199079582,0.0,0.0,0.0,0.0,False,False
2026-05-13T18:27:44.748,975,20.896995205650455,-0.0002503829962396971,-0.0004703515579215484,1.9987000226974487,20.851068288306124,-0.0012688279384747148,-0.0024904971942305565,9.8100004196167,0.0,0.0,0.0,180.4325199079582,0.0,0.0,0.0,0.0,False,False
2026-05-13T18:27:44.796,976,20.896995205650455,-0.0002503829962396971,-0.0004703515579215484,1.9987000226974487,20.896995205650455,-1.886347308754921e-05,-0.002499928930774331,9.809922218322754,0.0,0.0,0.0,180.4325199079582,0.0,0.0,0.0,0.0,False,False
2026-05-13T18:27:44.987,980,21.088948741773493,-0.0002503829962396971,-0.0004703515579215484,1.9987000226974487,21.088948741773493,0.002462201751768589,-0.005018721334636211,9.809922218322754,0.0,0.0,0.0,180.4325199079582,0.0,0.0,0.0,0.0,False,False
2026-05-13T18:27:45.034,981,21.135606747338898,-0.0002503829962396971,-0.0004703515579215484,1.9987000226974487,21.135606747338898,-0.0012311008758842945,0.0025093606673181057,9.8100004196167,0.0,0.0,0.0,180.4325199079582,0.0,0.0,0.0,0.0,False,False
2026-05-13T18:27:45.222,985,21.324411064604647,-0.0002503829962396971,-0.0004703515579215484,1.9987000226974487,21.324411064604647,1.886347308754921e-05,0.002499928930774331,9.8100004196167,0.0,0.0,0.0,180.4325199079582,0.0,0.0,0.0,0.0,False,False
2026-05-13T18:27:45.269,986,21.417894195983536,-0.0002503829962396971,-0.0004703515579215484,1.9987000226974487,21.417894195983536,0.0012311008758842945,-0.0025093606673181057,9.8100004196167,0.0,0.0,0.0,180.4325199079582,0.0,0.0,0.0,0.0,False,False
2026-05-13T18:27:45.459,990,21.607870135674602,-0.0002503829962396971,-0.0004703515579215484,1.9987000226974487,21.560057312468416,0.0024810656905174255,-0.0025187924038618803,9.8100004196167,0.0,0.0,0.0,180.4325199079582,0.0,0.0,0.0,0.0,False,False
2026-05-13T18:27:45.508,991,21.65659200049413,-0.0002503829962396971,-0.0004703515579215484,1.9987000226974487,21.65659200049413,-0.0024810656905174255,0.0025187924038618803,9.8100004196167,0.0,0.0,0.0,180.4325199079582,0.0,0.0,0.0,0.0,False,False
2026-05-13T18:27:45.697,995,21.84616570196522,-0.0002503829962396971,-0.0004703515579215484,1.9987000226974487,21.79759096748603,-0.002462201751768589,0.005018721334636211,9.810078620910645,0.0,0.0,0.0,180.4325199079582,0.0,0.0,0.0,0.0,False,False
2026-05-13T18:27:45.752,996,21.900836304048426,-0.0002503829962396971,-0.0004703515579215484,1.9987000226974487,21.900836304048426,-0.0018655150197446346,0.001264112303033471,9.810039520263672,0.0,0.0,0.0,180.4325199079582,0.0,0.0,0.0,0.0,False,False
2026-05-13T18:27:45.950,1000,22.09832363970054,-0.0002503829962396971,-0.0004703515579215484,1.9987000226974487,22.050213068941957,0.002462201751768589,-0.005018721334636211,9.809922218322754,0.0,0.0,0.0,180.4325199079582,0.0,0.0,0.0,0.0,False,False
2026-05-13T18:27:46.000,1001,22.09832363970054,-0.0002503829962396971,-0.0004703515579215484,1.9987000226974487,22.09832363970054,-0.0024810656905174255,0.0025187924038618803,9.81015682220459,0.0,0.0,0.0,180.4325199079582,0.0,0.0,0.0,0.0,False,False
2026-05-13T18:27:46.193,1005,22.29585064969433,-0.0002503829962396971,-0.0004703515579215484,1.9987000226974487,22.29585064969433,-0.002462201751768589,0.005018721334636211,9.810078620910645,0.0,0.0,0.0,180.4325199079582,0.0,0.0,0.0,0.0,False,False
2026-05-13T18:27:46.240,1006,22.341555949518806,-0.0002503829962396971,-0.0004703515579215484,1.9987000226974487,22.341555949518806,1.886347308754921e-05,0.002499928930774331,9.809922218322754,0.0,0.0,0.0,180.4325199079582,0.0,0.0,0.0,0.0,False,False
2026-05-13T18:27:46.430,1010,22.57889974511636,-0.0002503829962396971,-0.0004703515579215484,1.9987000226974487,22.57889974511636,0.0012311008758842945,-0.0025093606673181057,9.809844017028809,0.0,0.0,0.0,180.4325199079582,0.0,0.0,0.0,0.0,False,False
2026-05-13T18:27:46.477,1011,22.62613548360241,-0.0002503829962396971,-0.0004703515579215484,1.9987000226974487,22.62613548360241,-1.886347308754921e-05,-0.002499928930774331,9.809922218322754,0.0,0.0,0.0,180.4325199079582,0.0,0.0,0.0,0.0,False,False
2026-05-13T18:27:46.667,1015,22.768059011767036,-0.0002503829962396971,-0.0004703515579215484,1.9987000226974487,22.768059011767036,-0.0037310300394892693,0.002528224606066942,9.810235023498535,0.0,0.0,0.0,180.4325199079582,0.0,0.0,0.0,0.0,False,False
2026-05-13T18:27:46.717,1016,22.815480672041303,-0.0002503829962396971,-0.0004703515579215484,1.9987000226974487,22.815480672041303,-0.0012499644653871655,9.431736543774605e-06,9.8100004196167,0.0,0.0,0.0,180.4325199079582,0.0,0.0,0.0,0.0,False,False
2026-05-13T18:27:46.903,1020,23.052211001733667,-0.0002503829962396971,-0.0004703515579215484,1.9987000226974487,23.052211001733667,0.0012122374027967453,-0.0050092898309230804,9.809844017028809,0.0,0.0,0.0,180.4325199079582,0.0,0.0,0.0,0.0,False,False
2026-05-13T18:27:46.950,1021,23.099007312426693,-0.0002503829962396971,-0.0004703515579215484,1.9987000226974487,23.099007312426693,1.886347308754921e-05,0.002499928930774331,9.809922218322754,0.0,0.0,0.0,180.4325199079582,0.0,0.0,0.0,0.0,False,False
2026-05-13T18:27:47.137,1025,23.285721108535654,-0.0002503829962396971,-0.0004703515579215484,1.9987000226974487,23.24035933635605,0.0012311008758842945,-0.0025093606673181057,9.809922218322754,0.0,0.0,0.0,180.4325199079582,0.0,0.0,0.0,0.0,False,False
2026-05-13T18:27:47.184,1026,23.332736317286617,-0.0002503829962396971,-0.0004703515579215484,1.9987000226974487,23.285721108535654,0.0024810656905174255,-0.0025187924038618803,9.809922218322754,0.0,0.0,0.0,180.4325199079582,0.0,0.0,0.0,0.0,False,False
2026-05-13T18:27:47.372,1030,23.473394226501114,-0.0002503829962396971,-0.0004703515579215484,1.9987000226974487,23.473394226501114,5.6591350585222244e-05,0.007499787025153637,9.810078620910645,0.0,0.0,0.0,180.4325199079582,0.0,0.0,0.0,0.0,False,False
2026-05-13T18:27:47.418,1031,23.567192685077316,-0.0002503829962396971,-0.0004703515579215484,1.9987000226974487,23.52098986900819,-1.886347308754921e-05,-0.002499928930774331,9.8100004196167,0.0,0.0,0.0,180.4325199079582,0.0,0.0,0.0,0.0,False,False
2026-05-13T18:27:47.604,1035,23.706093177417642,-0.0002503829962396971,-0.0004703515579215484,1.9987000226974487,23.706093177417642,-0.0012311008758842945,0.0025093606673181057,9.8100004196167,0.0,0.0,0.0,180.4325199079582,0.0,0.0,0.0,0.0,False,False
2026-05-13T18:27:47.653,1036,23.753783039966947,-0.0002503829962396971,-0.0004703515579215484,1.9987000226974487,23.753783039966947,-0.0012122374027967453,0.0050092898309230804,9.810078620910645,0.0,0.0,0.0,180.4325199079582,0.0,0.0,0.0,0.0,False,False
2026-05-13T18:27:47.844,1040,23.945916056851274,-0.0002503829962396971,-0.0004703515579215484,1.9987000226974487,23.945916056851274,-1.886347308754921e-05,-0.002499928930774331,9.809922218322754,0.0,0.0,0.0,180.4325199079582,0.0,0.0,0.0,0.0,False,False
2026-05-13T18:27:47.891,1041,24.039773177573807,-0.0002503829962396971,-0.0004703515579215484,1.9987000226974487,23.992516502956278,0.0012122374027967453,-0.0050092898309230804,9.809844017028809,0.0,0.0,0.0,180.4325199079582,0.0,0.0,0.0,0.0,False,False
2026-05-13T18:27:48.075,1045,24.22425578556431,-0.0002503829962396971,-0.0004703515579215484,1.9987000226974487,24.17883240825904,-1.886347308754921e-05,-0.002499928930774331,9.810078620910645,0.0,0.0,0.0,180.4325199079582,0.0,0.0,0.0,0.0,False,False
2026-05-13T18:27:48.121,1046,24.22425578556431,-0.0002503829962396971,-0.0004703515579215484,1.9987000226974487,24.22425578556431,-1.886347308754921e-05,-0.002499928930774331,9.809922218322754,0.0,0.0,0.0,180.4325199079582,0.0,0.0,0.0,0.0,False,False
2026-05-13T18:27:48.309,1050,24.411865703979856,-0.0002503829962396971,-0.0004703515579215484,1.9987000226974487,24.411865703979856,-0.0037121661007404327,0.005028153769671917,9.81015682220459,0.0,0.0,0.0,180.4325199079582,0.0,0.0,0.0,0.0,False,False
2026-05-13T18:27:48.360,1051,24.50878410808218,-0.0002503829962396971,-0.0004703515579215484,1.9987000226974487,24.45813387281669,-0.0012311008758842945,0.0025093606673181057,9.809922218322754,0.0,0.0,0.0,180.4325199079582,0.0,0.0,0.0,0.0,False,False
2026-05-13T18:27:48.554,1055,24.70309256784094,-0.0002503829962396971,-0.0004703515579215484,1.9987000226974487,24.70309256784094,9.431736543774605e-06,0.0012499644653871655,9.810039520263672,0.0,0.0,0.0,180.4325199079582,0.0,0.0,0.0,0.0,False,False
2026-05-13T18:27:48.601,1056,24.70309256784094,-0.0002503829962396971,-0.0004703515579215484,1.9987000226974487,24.70309256784094,9.431736543774605e-06,0.0012499644653871655,9.810039520263672,0.0,0.0,0.0,180.4325199079582,0.0,0.0,0.0,0.0,False,False
2026-05-13T18:27:48.797,1060,24.898753606001264,-0.0002503829962396971,-0.0004703515579215484,1.9987000226974487,24.898753606001264,-0.0012311008758842945,0.0025093606673181057,9.81015682220459,0.0,0.0,0.0,180.4325199079582,0.0,0.0,0.0,0.0,False,False
2026-05-13T18:27:48.847,1061,24.946403194437153,-0.0002503829962396971,-0.0004703515579215484,1.9987000226974487,24.946403194437153,-0.0037121661007404327,0.005028153769671917,9.81015682220459,0.0,0.0,0.0,180.4325199079582,0.0,0.0,0.0,0.0,False,False
2026-05-13T18:27:49.042,1065,25.140167221645243,-0.0002503829962396971,-0.0004703515579215484,1.9987000226974487,25.140167221645243,0.0012311008758842945,-0.0025093606673181057,9.8100004196167,0.0,0.0,0.0,180.4325199079582,0.0,0.0,0.0,0.0,False,False
2026-05-13T18:27:49.092,1066,25.2405809948541,-0.0002503829962396971,-0.0004703515579215484,1.9987000226974487,25.190607395241386,-1.886347308754921e-05,-0.002499928930774331,9.809961318969727,0.0,0.0,0.0,180.4325199079582,0.0,0.0,0.0,0.0,False,False
2026-05-13T18:27:49.290,1070,25.390031106988317,-0.0002503829962396971,-0.0004703515579215484,1.9987000226974487,25.390031106988317,-0.0012499644653871655,9.431736543774605e-06,9.810078620910645,0.0,0.0,0.0,180.4325199079582,0.0,0.0,0.0,0.0,False,False
2026-05-13T18:27:49.342,1071,25.439161293426878,-0.0002503829962396971,-0.0004703515579215484,1.9987000226974487,25.439161293426878,1.886347308754921e-05,0.002499928930774331,9.809922218322754,0.0,0.0,0.0,180.4325199079582,0.0,0.0,0.0,0.0,False,False
2026-05-13T18:27:49.538,1075,25.63809061072243,-0.0002503829962396971,-0.0004703515579215484,1.9987000226974487,25.63809061072243,-1.886347308754921e-05,-0.002499928930774331,9.809922218322754,0.0,0.0,0.0,180.4325199079582,0.0,0.0,0.0,0.0,False,False
2026-05-13T18:27:49.589,1076,25.68725461907161,-0.0002503829962396971,-0.0004703515579215484,1.9987000226974487,25.68725461907161,-1.886347308754921e-05,-0.002499928930774331,9.809922218322754,0.0,0.0,0.0,180.4325199079582,0.0,0.0,0.0,0.0,False,False
2026-05-13T18:27:49.784,1080,25.933209493974573,-0.0002503829962396971,-0.0004703515579215484,1.9987000226974487,25.88459777853859,-0.002499928930774331,1.886347308754921e-05,9.810078620910645,0.0,0.0,0.0,180.4325199079582,0.0,0.0,0.0,0.0,False,False
2026-05-13T18:27:49.834,1081,25.933209493974573,-0.0002503829962396971,-0.0004703515579215484,1.9987000226974487,25.933209493974573,0.0,0.0,9.8100004196167,0.0,0.0,0.0,180.4325199079582,0.0,0.0,0.0,0.0,False,False
2026-05-13T18:27:50.034,1085,26.182675931820995,-0.0002503829962396971,-0.0004703515579215484,1.9987000226974487,26.182675931820995,-0.0012311008758842945,0.0025093606673181057,9.809922218322754,0.0,0.0,0.0,180.4325199079582,0.0,0.0,0.0,0.0,False,False
2026-05-13T18:27:50.081,1086,26.182675931820995,-0.0002503829962396971,-0.0004703515579215484,1.9987000226974487,26.182675931820995,-0.0012311008758842945,0.0025093606673181057,9.809922218322754,0.0,0.0,0.0,180.4325199079582,0.0,0.0,0.0,0.0,False,False
2026-05-13T18:27:50.271,1090,26.372130297342665,-0.0002503829962396971,-0.0004703515579215484,1.9987000226974487,26.372130297342665,-0.002499928930774331,1.886347308754921e-05,9.810078620910645,0.0,0.0,0.0,180.4325199079582,0.0,0.0,0.0,0.0,False,False
2026-05-13T18:27:50.320,1091,26.469310008207685,-0.0002503829962396971,-0.0004703515579215484,1.9987000226974487,26.419572599450476,0.0012499644653871655,-9.431736543774605e-06,9.810078620910645,0.0,0.0,0.0,180.4325199079582,0.0,0.0,0.0,0.0,False,False
2026-05-13T18:27:50.507,1095,26.655767888049013,-0.0002503829962396971,-0.0004703515579215484,1.9987000226974487,26.655767888049013,-3.772694617509842e-05,-0.004999857861548662,9.809922218322754,0.0,0.0,0.0,180.4325199079582,0.0,0.0,0.0,0.0,False,False
2026-05-13T18:27:50.554,1096,26.70287661276234,-0.0002503829962396971,-0.0004703515579215484,1.9987000226974487,26.70287661276234,0.0,0.0,9.810078620910645,0.0,0.0,0.0,180.4325199079582,0.0,0.0,0.0,0.0,False,False
2026-05-13T18:27:50.743,1100,26.845075760254986,-0.0002503829962396971,-0.0004703515579215484,1.9987000226974487,26.845075760254986,0.0012311008758842945,-0.0025093606673181057,9.809922218322754,0.0,0.0,0.0,180.4325199079582,0.0,0.0,0.0,0.0,False,False
2026-05-13T18:27:50.790,1101,26.89237742520345,-0.0002503829962396971,-0.0004703515579215484,1.9987000226974487,26.89237742520345,-0.0024810656905174255,0.0025187924038618803,9.8100004196167,0.0,0.0,0.0,180.4325199079582,0.0,0.0,0.0,0.0,False,False
2026-05-13T18:27:50.979,1105,27.1282059217192,-0.0002503829962396971,-0.0004703515579215484,1.9987000226974487,27.1282059217192,0.002462201751768589,-0.005018721334636211,9.8100004196167,0.0,0.0,0.0,180.4325199079582,0.0,0.0,0.0,0.0,False,False
2026-05-13T18:27:51.026,1106,27.1282059217192,-0.0002503829962396971,-0.0004703515579215484,1.9987000226974487,27.1282059217192,0.002462201751768589,-0.005018721334636211,9.8100004196167,0.0,0.0,0.0,180.4325199079582,0.0,0.0,0.0,0.0,False,False
2026-05-13T18:27:51.217,1110,27.31670631862653,-0.0002503829962396971,-0.0004703515579215484,1.9987000226974487,27.31670631862653,0.0012499644653871655,-9.431736543774605e-06,9.8100004196167,0.0,0.0,0.0,180.4325199079582,0.0,0.0,0.0,0.0,False,False
2026-05-13T18:27:51.265,1111,27.365518316844827,-0.0002503829962396971,-0.0004703515579215484,1.9987000226974487,27.365518316844827,1.886347308754921e-05,0.002499928930774331,9.810078620910645,0.0,0.0,0.0,180.4325199079582,0.0,0.0,0.0,0.0,False,False
2026-05-13T18:27:51.465,1115,27.61410568303836,-0.0002503829962396971,-0.0004703515579215484,1.9987000226974487,27.56643572098983,-0.0012499644653871655,9.431736543774605e-06,9.810078620910645,0.0,0.0,0.0,180.4325199079582,0.0,0.0,0.0,0.0,False,False
2026-05-13T18:27:51.513,1116,27.66172259695304,-0.0002503829962396971,-0.0004703515579215484,1.9987000226974487,27.61410568303836,0.0012122374027967453,-0.0050092898309230804,9.809922218322754,0.0,0.0,0.0,180.4325199079582,0.0,0.0,0.0,0.0,False,False
2026-05-13T18:27:51.699,1120,27.84791016227973,-0.0002503829962396971,-0.0004703515579215484,1.9987000226974487,27.80143466241134,0.0,0.0,9.8100004196167,0.0,0.0,0.0,180.4325199079582,0.0,0.0,0.0,0.0,False,False
2026-05-13T18:27:51.748,1121,27.84791016227973,-0.0002503829962396971,-0.0004703515579215484,1.9987000226974487,27.84791016227973,0.0,0.0,9.8100004196167,0.0,0.0,0.0,180.4325199079582,0.0,0.0,0.0,0.0,False,False
2026-05-13T18:27:51.935,1125,28.083848871508962,-0.0002503829962396971,-0.0004703515579215484,1.9987000226974487,28.037392687270767,0.0024433378130197525,-0.007518650498241186,9.809844017028809,0.0,0.0,0.0,180.4325199079582,0.0,0.0,0.0,0.0,False,False
2026-05-13T18:27:51.982,1126,28.13134817055834,-0.0002503829962396971,-0.0004703515579215484,1.9987000226974487,28.083848871508962,0.0012311008758842945,-0.0025093606673181057,9.809922218322754,0.0,0.0,0.0,180.4325199079582,0.0,0.0,0.0,0.0,False,False
2026-05-13T18:27:52.171,1130,28.32047615967167,-0.0002503829962396971,-0.0004703515579215484,1.9987000226974487,28.27289558596385,0.002499928930774331,-1.886347308754921e-05,9.8100004196167,0.0,0.0,0.0,180.4325199079582,0.0,0.0,0.0,0.0,False,False
2026-05-13T18:27:52.218,1131,28.32047615967167,-0.0002503829962396971,-0.0004703515579215484,1.9987000226974487,28.32047615967167,0.002499928930774331,-1.886347308754921e-05,9.8100004196167,0.0,0.0,0.0,180.4325199079582,0.0,0.0,0.0,0.0,False,False
2026-05-13T18:27:52.412,1135,28.56108421854151,-0.0002503829962396971,-0.0004703515579215484,1.9987000226974487,28.56108421854151,0.0,0.0,9.810078620910645,0.0,0.0,0.0,180.4325199079582,0.0,0.0,0.0,0.0,False,False
2026-05-13T18:27:52.460,1136,28.60924033469928,-0.0002503829962396971,-0.0004703515579215484,1.9987000226974487,28.56108421854151,0.0,0.0,9.810078620910645,0.0,0.0,0.0,180.4325199079582,0.0,0.0,0.0,0.0,False,False
2026-05-13T18:27:52.651,1140,28.800315998712904,-0.0002503829962396971,-0.0004703515579215484,1.9987000226974487,28.752348587135202,0.0012311008758842945,-0.0025093606673181057,9.809844017028809,0.0,0.0,0.0,180.4325199079582,0.0,0.0,0.0,0.0,False,False
2026-05-13T18:27:52.698,1141,28.846630864063627,-0.0002503829962396971,-0.0004703515579215484,1.9987000226974487,28.800315998712904,0.0012311008758842945,-0.0025093606673181057,9.810078620910645,0.0,0.0,0.0,180.4325199079582,0.0,0.0,0.0,0.0,False,False
2026-05-13T18:27:52.882,1145,29.031009339014417,-0.0002503829962396971,-0.0004703515579215484,1.9987000226974487,29.031009339014417,-0.0024810656905174255,0.0025187924038618803,9.81015682220459,0.0,0.0,0.0,180.4325199079582,0.0,0.0,0.0,0.0,False,False
2026-05-13T18:27:52.929,1146,29.031009339014417,-0.0002503829962396971,-0.0004703515579215484,1.9987000226974487,29.031009339014417,-0.0024810656905174255,0.0025187924038618803,9.81015682220459,0.0,0.0,0.0,180.4325199079582,0.0,0.0,0.0,0.0,False,False
2026-05-13T18:27:53.114,1150,29.21719778350962,-0.0002503829962396971,-0.0004703515579215484,1.9987000226974487,29.21719778350962,-0.0024810656905174255,0.0025187924038618803,9.810235023498535,0.0,0.0,0.0,180.4325199079582,0.0,0.0,0.0,0.0,False,False
2026-05-13T18:27:53.160,1151,29.262610048273928,-0.0002503829962396971,-0.0004703515579215484,1.9987000226974487,29.262610048273928,-0.0012311008758842945,0.0025093606673181057,9.810078620910645,0.0,0.0,0.0,180.4325199079582,0.0,0.0,0.0,0.0,False,False
2026-05-13T18:27:53.350,1155,29.49916863090766,-0.0002503829962396971,-0.0004703515579215484,1.9987000226974487,29.49916863090766,0.0012499644653871655,-9.431736543774605e-06,9.809844017028809,0.0,0.0,0.0,180.4325199079582,0.0,0.0,0.0,0.0,False,False
2026-05-13T18:27:53.396,1156,29.54504521958006,-0.0002503829962396971,-0.0004703515579215484,1.9987000226974487,29.49916863090766,0.0012499644653871655,-9.431736543774605e-06,9.809844017028809,0.0,0.0,0.0,180.4325199079582,0.0,0.0,0.0,0.0,False,False
2026-05-13T18:27:53.586,1160,29.68218972555769,-0.0002503829962396971,-0.0004703515579215484,1.9987000226974487,29.68218972555769,-1.886347308754921e-05,-0.002499928930774331,9.809922218322754,0.0,0.0,0.0,180.4325199079582,0.0,0.0,0.0,0.0,False,False
2026-05-13T18:27:53.638,1161,29.73518170065654,-0.0002503829962396971,-0.0004703515579215484,1.9987000226974487,29.73518170065654,0.002462201751768589,-0.005018721334636211,9.809883117675781,0.0,0.0,0.0,180.4325199079582,0.0,0.0,0.0,0.0,False,False
2026-05-13T18:27:53.833,1165,29.982192918876535,-0.0002503829962396971,-0.0004703515579215484,1.9987000226974487,29.93342927492631,-1.886347308754921e-05,-0.002499928930774331,9.809961318969727,0.0,0.0,0.0,180.4325199079582,0.0,0.0,0.0,0.0,False,False
2026-05-13T18:27:53.882,1166,29.982192918876535,-0.0002503829962396971,-0.0004703515579215484,1.9987000226974487,29.982192918876535,0.0024810656905174255,-0.0025187924038618803,9.809844017028809,0.0,0.0,0.0,180.4325199079582,0.0,0.0,0.0,0.0,False,False
2026-05-13T18:27:54.075,1170,30.17896219364775,-0.0002503829962396971,-0.0004703515579215484,1.9987000226974487,30.17896219364775,-0.0012122374027967453,0.0050092898309230804,9.810078620910645,0.0,0.0,0.0,180.4325199079582,0.0,0.0,0.0,0.0,False,False
2026-05-13T18:27:54.123,1171,30.224427078137523,-0.0002503829962396971,-0.0004703515579215484,1.9987000226974487,30.224427078137523,0.0,0.0,9.8100004196167,0.0,0.0,0.0,180.4325199079582,0.0,0.0,0.0,0.0,False,False
2026-05-13T18:27:54.312,1175,30.460742369512445,-0.0002503829962396971,-0.0004703515579215484,1.9987000226974487,30.460742369512445,0.0,0.0,9.81015682220459,0.0,0.0,0.0,180.4325199079582,0.0,0.0,0.0,0.0,False,False
2026-05-13T18:27:54.362,1176,30.510632515171892,-0.0002503829962396971,-0.0004703515579215484,1.9987000226974487,30.510632515171892,0.0012499644653871655,-9.431736543774605e-06,9.809922218322754,0.0,0.0,0.0,180.4325199079582,0.0,0.0,0.0,0.0,False,False
2026-05-13T18:27:54.579,1180,30.66813750959409,-0.0002503829962396971,-0.0004703515579215484,1.9987000226974487,30.66813750959409,0.0006155504379421473,-0.0012546803336590528,9.809922218322754,0.0,0.0,0.0,180.4325199079582,0.0,0.0,0.0,0.0,False,False
2026-05-13T18:27:54.635,1181,30.726542502859957,-0.0002503829962396971,-0.0004703515579215484,1.9987000226974487,30.726542502859957,-0.0012405328452587128,0.0012593962019309402,9.810078620910645,0.0,0.0,0.0,180.4325199079582,0.0,0.0,0.0,0.0,False,False
2026-05-13T18:27:54.858,1185,30.958367713014013,-0.0002503829962396971,-0.0004703515579215484,1.9987000226974487,30.958367713014013,-0.0006061187013983727,0.0025046449154615402,9.810078620910645,0.0,0.0,0.0,180.4325199079582,0.0,0.0,0.0,0.0,False,False
2026-05-13T18:27:54.906,1186,31.055294901350862,-0.0002503829962396971,-0.0004703515579215484,1.9987000226974487,31.00674759618414,0.0024810656905174255,-0.0025187924038618803,9.809922218322754,0.0,0.0,0.0,180.4325199079582,0.0,0.0,0.0,0.0,False,False
2026-05-13T18:27:55.101,1190,31.204904090831405,-0.0002503829962396971,-0.0004703515579215484,1.9987000226974487,31.204904090831405,-0.0012311008758842945,0.0025093606673181057,9.8100004196167,0.0,0.0,0.0,180.4325199079582,0.0,0.0,0.0,0.0,False,False
2026-05-13T18:27:55.148,1191,31.296718798796064,-0.0002503829962396971,-0.0004703515579215484,1.9987000226974487,31.250293035278446,-0.0012122374027967453,0.0050092898309230804,9.81015682220459,0.0,0.0,0.0,180.4325199079582,0.0,0.0,0.0,0.0,False,False
2026-05-13T18:27:55.334,1195,31.483058054218418,-0.0002503829962396971,-0.0004703515579215484,1.9987000226974487,31.483058054218418,0.002462201751768589,-0.005018721334636211,9.809844017028809,0.0,0.0,0.0,180.4325199079582,0.0,0.0,0.0,0.0,False,False
2026-05-13T18:27:55.380,1196,31.529346738228924,-0.0002503829962396971,-0.0004703515579215484,1.9987000226974487,31.483058054218418,0.002462201751768589,-0.005018721334636211,9.809844017028809,0.0,0.0,0.0,180.4325199079582,0.0,0.0,0.0,0.0,False,False
2026-05-13T18:27:55.565,1200,31.66468000433815,-0.0002503829962396971,-0.0004703515579215484,1.9987000226974487,31.66468000433815,-0.0012499644653871655,9.431736543774605e-06,9.81015682220459,0.0,0.0,0.0,180.4325199079582,0.0,0.0,0.0,0.0,False,False
2026-05-13T18:27:55.611,1201,31.760299507746822,-0.0002503829962396971,-0.0004703515579215484,1.9987000226974487,31.714413549969322,-0.0012499644653871655,9.431736543774605e-06,9.8100004196167,0.0,0.0,0.0,180.4325199079582,0.0,0.0,0.0,0.0,False,False
2026-05-13T18:27:55.793,1205,31.896197613546974,-0.0002503829962396971,-0.0004703515579215484,1.9987000226974487,31.896197613546974,-0.0024810656905174255,0.0025187924038618803,9.81015682220459,0.0,0.0,0.0,180.4325199079582,0.0,0.0,0.0,0.0,False,False
2026-05-13T18:27:55.841,1206,31.98961941919697,-0.0002503829962396971,-0.0004703515579215484,1.9987000226974487,31.942475654403097,-3.772694617509842e-05,-0.004999857861548662,9.809844017028809,0.0,0.0,0.0,180.4325199079582,0.0,0.0,0.0,0.0,False,False
2026-05-13T18:27:56.030,1210,32.13060235253943,-0.0002503829962396971,-0.0004703515579215484,1.9987000226974487,32.13060235253943,0.002462201751768589,-0.005018721334636211,9.809844017028809,0.0,0.0,0.0,180.4325199079582,0.0,0.0,0.0,0.0,False,False
2026-05-13T18:27:56.077,1211,32.17902538574708,-0.0002503829962396971,-0.0004703515579215484,1.9987000226974487,32.17902538574708,-0.002462201751768589,0.005018721334636211,9.81015682220459,0.0,0.0,0.0,180.4325199079582,0.0,0.0,0.0,0.0,False,False
2026-05-13T18:27:56.268,1215,32.36989677346719,-0.0002503829962396971,-0.0004703515579215484,1.9987000226974487,32.36989677346719,-0.0012122374027967453,0.0050092898309230804,9.8100004196167,0.0,0.0,0.0,180.4325199079582,0.0,0.0,0.0,0.0,False,False
2026-05-13T18:27:56.316,1216,32.465093959341175,-0.0002503829962396971,-0.0004703515579215484,1.9987000226974487,32.465093959341175,3.772694617509842e-05,0.004999857861548662,9.81015682220459,0.0,0.0,0.0,180.4325199079582,0.0,0.0,0.0,0.0,False,False
2026-05-13T18:27:56.504,1220,32.608157750437385,-0.0002503829962396971,-0.0004703515579215484,1.9987000226974487,32.608157750437385,-0.0012122374027967453,0.0050092898309230804,9.810078620910645,0.0,0.0,0.0,180.4325199079582,0.0,0.0,0.0,0.0,False,False
2026-05-13T18:27:56.550,1221,32.69857633880747,-0.0002503829962396971,-0.0004703515579215484,1.9987000226974487,32.69857633880747,0.0012499644653871655,-9.431736543774605e-06,9.8100004196167,0.0,0.0,0.0,180.4325199079582,0.0,0.0,0.0,0.0,False,False
2026-05-13T18:27:56.739,1225,32.84142065815104,-0.0002503829962396971,-0.0004703515579215484,1.9987000226974487,32.84142065815104,0.0024810656905174255,-0.0025187924038618803,9.809844017028809,0.0,0.0,0.0,180.4325199079582,0.0,0.0,0.0,0.0,False,False
2026-05-13T18:27:56.786,1226,32.93528567276371,-0.0002503829962396971,-0.0004703515579215484,1.9987000226974487,32.93528567276371,1.886347308754921e-05,0.002499928930774331,9.810078620910645,0.0,0.0,0.0,180.4325199079582,0.0,0.0,0.0,0.0,False,False
2026-05-13T18:27:56.973,1230,33.12151504702342,-0.0002503829962396971,-0.0004703515579215484,1.9987000226974487,33.12151504702342,1.886347308754921e-05,0.002499928930774331,9.810078620910645,0.0,0.0,0.0,180.4325199079582,0.0,0.0,0.0,0.0,False,False
2026-05-13T18:27:57.018,1231,33.16745314023865,-0.0002503829962396971,-0.0004703515579215484,1.9987000226974487,33.12151504702342,1.886347308754921e-05,0.002499928930774331,9.810078620910645,0.0,0.0,0.0,180.4325199079582,0.0,0.0,0.0,0.0,False,False
2026-05-13T18:27:57.207,1235,33.30892342723382,-0.0002503829962396971,-0.0004703515579215484,1.9987000226974487,33.30892342723382,-0.0012688279384747148,-0.0024904971942305565,9.809844017028809,0.0,0.0,0.0,180.4325199079582,0.0,0.0,0.0,0.0,False,False
2026-05-13T18:27:57.256,1236,33.35629730320943,-0.0002503829962396971,-0.0004703515579215484,1.9987000226974487,33.35629730320943,0.0012122374027967453,-0.0050092898309230804,9.8100004196167,0.0,0.0,0.0,180.4325199079582,0.0,0.0,0.0,0.0,False,False
2026-05-13T18:27:57.443,1240,33.546950075993664,-0.0002503829962396971,-0.0004703515579215484,1.9987000226974487,33.546950075993664,0.0,0.0,9.810078620910645,0.0,0.0,0.0,180.4325199079582,0.0,0.0,0.0,0.0,False,False
2026-05-13T18:27:57.489,1241,33.591726437429315,-0.0002503829962396971,-0.0004703515579215484,1.9987000226974487,33.591726437429315,0.0,0.0,9.8100004196167,0.0,0.0,0.0,180.4325199079582,0.0,0.0,0.0,0.0,False,False
2026-05-13T18:27:57.678,1245,33.77891125179303,-0.0002503829962396971,-0.0004703515579215484,1.9987000226974487,33.77891125179303,0.0012122374027967453,-0.0050092898309230804,9.8100004196167,0.0,0.0,0.0,180.4325199079582,0.0,0.0,0.0,0.0,False,False
2026-05-13T18:27:57.726,1246,33.82636722199095,-0.0002503829962396971,-0.0004703515579215484,1.9987000226974487,33.82636722199095,-0.0012122374027967453,0.0050092898309230804,9.810078620910645,0.0,0.0,0.0,180.4325199079582,0.0,0.0,0.0,0.0,False,False
2026-05-13T18:27:57.921,1250,34.0242831522919,-0.0002503829962396971,-0.0004703515579215484,1.9987000226974487,34.0242831522919,-0.0037310300394892693,0.002528224606066942,9.81015682220459,0.0,0.0,0.0,180.4325199079582,0.0,0.0,0.0,0.0,False,False
2026-05-13T18:27:57.966,1251,34.06941355786694,-0.0002503829962396971,-0.0004703515579215484,1.9987000226974487,34.06941355786694,-0.0012688279384747148,-0.0024904971942305565,9.809922218322754,0.0,0.0,0.0,180.4325199079582,0.0,0.0,0.0,0.0,False,False
2026-05-13T18:27:58.179,1255,34.327564779887325,-0.0002503829962396971,-0.0004703515579215484,1.9987000226974487,34.266217947224504,0.0006155504379421473,-0.0012546803336590528,9.8100004196167,0.0,0.0,0.0,180.4325199079582,0.0,0.0,0.0,0.0,False,False
2026-05-13T18:27:58.234,1256,34.327564779887325,-0.0002503829962396971,-0.0004703515579215484,1.9987000226974487,34.327564779887325,-0.0006249822326935828,4.715868271887302e-06,9.810039520263672,0.0,0.0,0.0,180.4325199079582,0.0,0.0,0.0,0.0,False,False
2026-05-13T18:27:58.420,1260,34.52306645012868,-0.0002503829962396971,-0.0004703515579215484,1.9987000226974487,34.52306645012868,0.0012122374027967453,-0.0050092898309230804,9.8100004196167,0.0,0.0,0.0,180.4325199079582,0.0,0.0,0.0,0.0,False,False
2026-05-13T18:27:58.466,1261,34.56890606902016,-0.0002503829962396971,-0.0004703515579215484,1.9987000226974487,34.56890606902016,0.0037121661007404327,-0.005028153769671917,9.809922218322754,0.0,0.0,0.0,180.4325199079582,0.0,0.0,0.0,0.0,False,False
2026-05-13T18:27:58.653,1265,34.80182797856105,-0.0002503829962396971,-0.0004703515579215484,1.9987000226974487,34.75578970483912,0.0012311008758842945,-0.0025093606673181057,9.809844017028809,0.0,0.0,0.0,180.4325199079582,0.0,0.0,0.0,0.0,False,False
2026-05-13T18:27:58.698,1266,34.80182797856105,-0.0002503829962396971,-0.0004703515579215484,1.9987000226974487,34.80182797856105,-1.886347308754921e-05,-0.002499928930774331,9.809922218322754,0.0,0.0,0.0,180.4325199079582,0.0,0.0,0.0,0.0,False,False
2026-05-13T18:27:58.884,1270,34.98760477102769,-0.0002503829962396971,-0.0004703515579215484,1.9987000226974487,34.98760477102769,-0.0012311008758842945,0.0025093606673181057,9.8100004196167,0.0,0.0,0.0,180.4325199079582,0.0,0.0,0.0,0.0,False,False
2026-05-13T18:27:58.930,1271,35.07890583969129,-0.0002503829962396971,-0.0004703515579215484,1.9987000226974487,35.07890583969129,1.886347308754921e-05,0.002499928930774331,9.81015682220459,0.0,0.0,0.0,180.4325199079582,0.0,0.0,0.0,0.0,False,False
2026-05-13T18:27:59.120,1275,35.26853364727867,-0.0002503829962396971,-0.0004703515579215484,1.9987000226974487,35.26853364727867,0.0012311008758842945,-0.0025093606673181057,9.809922218322754,0.0,0.0,0.0,180.4325199079582,0.0,0.0,0.0,0.0,False,False
2026-05-13T18:27:59.173,1276,35.32120828352345,-0.0002503829962396971,-0.0004703515579215484,1.9987000226974487,35.32120828352345,9.431736543774605e-06,0.0012499644653871655,9.810039520263672,0.0,0.0,0.0,180.4325199079582,0.0,0.0,0.0,0.0,False,False
2026-05-13T18:27:59.367,1280,35.47048661507142,-0.0002503829962396971,-0.0004703515579215484,1.9987000226974487,35.47048661507142,0.002462201751768589,-0.005018721334636211,9.809844017028809,0.0,0.0,0.0,180.4325199079582,0.0,0.0,0.0,0.0,False,False
2026-05-13T18:27:59.415,1281,35.515646543572075,-0.0002503829962396971,-0.0004703515579215484,1.9987000226974487,35.515646543572075,1.886347308754921e-05,0.002499928930774331,9.810078620910645,0.0,0.0,0.0,180.4325199079582,0.0,0.0,0.0,0.0,False,False
2026-05-13T18:27:59.606,1285,35.70969398714078,-0.0002503829962396971,-0.0004703515579215484,1.9987000226974487,35.70969398714078,-0.0012311008758842945,0.0025093606673181057,9.810117721557617,0.0,0.0,0.0,180.4325199079582,0.0,0.0,0.0,0.0,False,False
2026-05-13T18:27:59.652,1286,35.75528388864768,-0.0002503829962396971,-0.0004703515579215484,1.9987000226974487,35.75528388864768,0.0012311008758842945,-0.0025093606673181057,9.8100004196167,0.0,0.0,0.0,180.4325199079582,0.0,0.0,0.0,0.0,False,False
2026-05-13T18:27:59.837,1290,35.940560329923755,-0.0002503829962396971,-0.0004703515579215484,1.9987000226974487,35.940560329923755,-0.0012122374027967453,0.0050092898309230804,9.81015682220459,0.0,0.0,0.0,180.4325199079582,0.0,0.0,0.0,0.0,False,False
2026-05-13T18:27:59.885,1291,35.98637041098846,-0.0002503829962396971,-0.0004703515579215484,1.9987000226974487,35.98637041098846,-0.0024810656905174255,0.0025187924038618803,9.810235023498535,0.0,0.0,0.0,180.4325199079582,0.0,0.0,0.0,0.0,False,False
2026-05-13T18:28:00.075,1295,36.172653176108724,-0.0002503829962396971,-0.0004703515579215484,1.9987000226974487,36.172653176108724,0.0012499644653871655,-9.431736543774605e-06,9.8100004196167,0.0,0.0,0.0,180.4325199079582,0.0,0.0,0.0,0.0,False,False
2026-05-13T18:28:00.125,1296,36.22372458151949,-0.0002503829962396971,-0.0004703515579215484,1.9987000226974487,36.22372458151949,-0.0012122374027967453,0.0050092898309230804,9.810078620910645,0.0,0.0,0.0,180.4325199079582,0.0,0.0,0.0,0.0,False,False
2026-05-13T18:28:00.308,1300,36.41096017531527,-0.0002503829962396971,-0.0004703515579215484,1.9987000226974487,36.41096017531527,-0.0012499644653871655,9.431736543774605e-06,9.8100004196167,0.0,0.0,0.0,180.4325199079582,0.0,0.0,0.0,0.0,False,False
2026-05-13T18:28:00.355,1301,36.45674514419807,-0.0002503829962396971,-0.0004703515579215484,1.9987000226974487,36.45674514419807,0.0012499644653871655,-9.431736543774605e-06,9.8100004196167,0.0,0.0,0.0,180.4325199079582,0.0,0.0,0.0,0.0,False,False
2026-05-13T18:28:00.535,1305,36.63927226535452,-0.0002503829962396971,-0.0004703515579215484,1.9987000226974487,36.63927226535452,-0.0012311008758842945,0.0025093606673181057,9.810078620910645,0.0,0.0,0.0,180.4325199079582,0.0,0.0,0.0,0.0,False,False
2026-05-13T18:28:00.581,1306,36.730417665312416,-0.0002503829962396971,-0.0004703515579215484,1.9987000226974487,36.684061501393444,0.0012311008758842945,-0.0025093606673181057,9.809922218322754,0.0,0.0,0.0,180.4325199079582,0.0,0.0,0.0,0.0,False,False
2026-05-13T18:28:00.775,1310,36.874486830303795,-0.0002503829962396971,-0.0004703515579215484,1.9987000226974487,36.874486830303795,1.886347308754921e-05,0.002499928930774331,9.810039520263672,0.0,0.0,0.0,180.4325199079582,0.0,0.0,0.0,0.0,False,False
2026-05-13T18:28:00.826,1311,36.92426188684476,-0.0002503829962396971,-0.0004703515579215484,1.9987000226974487,36.92426188684476,0.0012311008758842945,-0.0025093606673181057,9.809883117675781,0.0,0.0,0.0,180.4325199079582,0.0,0.0,0.0,0.0,False,False
2026-05-13T18:28:01.016,1315,37.118246782789356,-0.0002503829962396971,-0.0004703515579215484,1.9987000226974487,37.118246782789356,1.886347308754921e-05,0.002499928930774331,9.8100004196167,0.0,0.0,0.0,180.4325199079582,0.0,0.0,0.0,0.0,False,False
2026-05-13T18:28:01.068,1316,37.164884001234896,-0.0002503829962396971,-0.0004703515579215484,1.9987000226974487,37.164884001234896,0.002499928930774331,-1.886347308754921e-05,9.8100004196167,0.0,0.0,0.0,180.4325199079582,0.0,0.0,0.0,0.0,False,False
2026-05-13T18:28:01.258,1320,37.40735537953151,-0.0002503829962396971,-0.0004703515579215484,1.9987000226974487,37.358559403786785,-0.0012311008758842945,0.0025093606673181057,9.81015682220459,0.0,0.0,0.0,180.4325199079582,0.0,0.0,0.0,0.0,False,False
2026-05-13T18:28:01.309,1321,37.45827372393978,-0.0002503829962396971,-0.0004703515579215484,1.9987000226974487,37.45827372393978,0.0012216689065098763,-0.003759325249120593,9.8100004196167,0.0,0.0,0.0,180.4325199079582,0.0,0.0,0.0,0.0,False,False
2026-05-13T18:28:01.490,1325,37.59384620584024,-0.0002503829962396971,-0.0004703515579215484,1.9987000226974487,37.59384620584024,0.0012122374027967453,-0.0050092898309230804,9.8100004196167,0.0,0.0,0.0,180.4325199079582,0.0,0.0,0.0,0.0,False,False
2026-05-13T18:28:01.535,1326,37.6384122895397,-0.0002503829962396971,-0.0004703515579215484,1.9987000226974487,37.6384122895397,-0.0012311008758842945,0.0025093606673181057,9.810078620910645,0.0,0.0,0.0,180.4325199079582,0.0,0.0,0.0,0.0,False,False
2026-05-13T18:28:01.725,1330,37.82802402995003,-0.0002503829962396971,-0.0004703515579215484,1.9987000226974487,37.82802402995003,-0.0012311008758842945,0.0025093606673181057,9.81015682220459,0.0,0.0,0.0,180.4325199079582,0.0,0.0,0.0,0.0,False,False
2026-05-13T18:28:01.771,1331,37.87405914835108,-0.0002503829962396971,-0.0004703515579215484,1.9987000226974487,37.87405914835108,0.0024433378130197525,-0.007518650498241186,9.8100004196167,0.0,0.0,0.0,180.4325199079582,0.0,0.0,0.0,0.0,False,False
2026-05-13T18:28:01.956,1335,38.05953273944033,-0.0002503829962396971,-0.0004703515579215484,1.9987000226974487,38.05953273944033,0.0024810656905174255,-0.0025187924038618803,9.8100004196167,0.0,0.0,0.0,180.4325199079582,0.0,0.0,0.0,0.0,False,False
2026-05-13T18:28:02.002,1336,38.10468533284438,-0.0002503829962396971,-0.0004703515579215484,1.9987000226974487,38.10468533284438,0.0012311008758842945,-0.0025093606673181057,9.8100004196167,0.0,0.0,0.0,180.4325199079582,0.0,0.0,0.0,0.0,False,False
2026-05-13T18:28:02.196,1340,38.295988749930984,-0.0002503829962396971,-0.0004703515579215484,1.9987000226974487,38.295988749930984,-0.0012311008758842945,0.0025093606673181057,9.81015682220459,0.0,0.0,0.0,180.4325199079582,0.0,0.0,0.0,0.0,False,False
2026-05-13T18:28:02.242,1341,38.39127708993328,-0.0002503829962396971,-0.0004703515579215484,1.9987000226974487,38.39127708993328,-0.0024810656905174255,0.0025187924038618803,9.81015682220459,0.0,0.0,0.0,180.4325199079582,0.0,0.0,0.0,0.0,False,False
2026-05-13T18:28:02.426,1345,38.57504716537369,-0.0002503829962396971,-0.0004703515579215484,1.9987000226974487,38.57504716537369,1.886347308754921e-05,0.002499928930774331,9.810078620910645,0.0,0.0,0.0,180.4325199079582,0.0,0.0,0.0,0.0,False,False
2026-05-13T18:28:02.472,1346,38.62150728351844,-0.0002503829962396971,-0.0004703515579215484,1.9987000226974487,38.57504716537369,1.886347308754921e-05,0.002499928930774331,9.810078620910645,0.0,0.0,0.0,180.4325199079582,0.0,0.0,0.0,0.0,False,False
2026-05-13T18:28:02.664,1350,38.813269563237554,-0.0002503829962396971,-0.0004703515579215484,1.9987000226974487,38.7625498885609,0.0012499644653871655,-9.431736543774605e-06,9.809922218322754,0.0,0.0,0.0,180.4325199079582,0.0,0.0,0.0,0.0,False,False
2026-05-13T18:28:02.713,1351,38.86232106409443,-0.0002503829962396971,-0.0004703515579215484,1.9987000226974487,38.813269563237554,0.0012499644653871655,-9.431736543774605e-06,9.810039520263672,0.0,0.0,0.0,180.4325199079582,0.0,0.0,0.0,0.0,False,False
2026-05-13T18:28:02.904,1355,39.007221952299005,-0.0002503829962396971,-0.0004703515579215484,1.9987000226974487,39.007221952299005,-0.0012499644653871655,9.431736543774605e-06,9.8100004196167,0.0,0.0,0.0,180.4325199079582,0.0,0.0,0.0,0.0,False,False
2026-05-13T18:28:02.954,1356,39.10321520663274,-0.0002503829962396971,-0.0004703515579215484,1.9987000226974487,39.10321520663274,0.0,0.0,9.8100004196167,0.0,0.0,0.0,180.4325199079582,0.0,0.0,0.0,0.0,False,False
2026-05-13T18:28:03.143,1360,39.246276572564966,-0.0002503829962396971,-0.0004703515579215484,1.9987000226974487,39.246276572564966,0.0012122374027967453,-0.0050092898309230804,9.809922218322754,0.0,0.0,0.0,180.4325199079582,0.0,0.0,0.0,0.0,False,False
2026-05-13T18:28:03.188,1361,39.337242048452026,-0.0002503829962396971,-0.0004703515579215484,1.9987000226974487,39.337242048452026,-1.886347308754921e-05,-0.002499928930774331,9.809922218322754,0.0,0.0,0.0,180.4325199079582,0.0,0.0,0.0,0.0,False,False
2026-05-13T18:28:03.372,1365,39.5215732233919,-0.0002503829962396971,-0.0004703515579215484,1.9987000226974487,39.47513999811781,-0.0012311008758842945,0.0025093606673181057,9.810078620910645,0.0,0.0,0.0,180.4325199079582,0.0,0.0,0.0,0.0,False,False
2026-05-13T18:28:03.417,1366,39.5215732233919,-0.0002503829962396971,-0.0004703515579215484,1.9987000226974487,39.5215732233919,0.0012499644653871655,-9.431736543774605e-06,9.8100004196167,0.0,0.0,0.0,180.4325199079582,0.0,0.0,0.0,0.0,False,False
2026-05-13T18:28:03.602,1370,39.70723836890829,-0.0002503829962396971,-0.0004703515579215484,1.9987000226974487,39.70723836890829,-0.0024810656905174255,0.0025187924038618803,9.8100004196167,0.0,0.0,0.0,180.4325199079582,0.0,0.0,0.0,0.0,False,False
2026-05-13T18:28:03.649,1371,39.79752918354643,-0.0002503829962396971,-0.0004703515579215484,1.9987000226974487,39.79752918354643,-0.002462201751768589,0.005018721334636211,9.810078620910645,0.0,0.0,0.0,180.4325199079582,0.0,0.0,0.0,0.0,False,False
2026-05-13T18:28:03.848,1375,39.99720712400449,-0.0002503829962396971,-0.0004703515579215484,1.9987000226974487,39.99720712400449,-0.0012122374027967453,0.0050092898309230804,9.8100004196167,0.0,0.0,0.0,180.4325199079582,0.0,0.0,0.0,0.0,False,False
2026-05-13T18:28:03.896,1376,40.04500242344511,-0.0002503829962396971,-0.0004703515579215484,1.9987000226974487,39.99720712400449,-0.0012122374027967453,0.0050092898309230804,9.8100004196167,0.0,0.0,0.0,180.4325199079582,0.0,0.0,0.0,0.0,False,False
2026-05-13T18:28:04.086,1380,40.18581676504982,-0.0002503829962396971,-0.0004703515579215484,1.9987000226974487,40.18581676504982,0.0012499644653871655,-9.431736543774605e-06,9.809765815734863,0.0,0.0,0.0,180.4325199079582,0.0,0.0,0.0,0.0,False,False
2026-05-13T18:28:04.133,1381,40.28170643396152,-0.0002503829962396971,-0.0004703515579215484,1.9987000226974487,40.28170643396152,0.0,0.0,9.809922218322754,0.0,0.0,0.0,180.4325199079582,0.0,0.0,0.0,0.0,False,False
2026-05-13T18:28:04.321,1385,40.424948048064834,-0.0002503829962396971,-0.0004703515579215484,1.9987000226974487,40.424948048064834,3.772694617509842e-05,0.004999857861548662,9.810039520263672,0.0,0.0,0.0,180.4325199079582,0.0,0.0,0.0,0.0,False,False
2026-05-13T18:28:04.368,1386,40.5167168679036,-0.0002503829962396971,-0.0004703515579215484,1.9987000226974487,40.5167168679036,-0.0012311008758842945,0.0025093606673181057,9.810078620910645,0.0,0.0,0.0,180.4325199079582,0.0,0.0,0.0,0.0,False,False
2026-05-13T18:28:04.549,1390,40.65250931329501,-0.0002503829962396971,-0.0004703515579215484,1.9987000226974487,40.65250931329501,-0.0012311008758842945,0.0025093606673181057,9.8100004196167,0.0,0.0,0.0,180.4325199079582,0.0,0.0,0.0,0.0,False,False
2026-05-13T18:28:04.595,1391,40.69764935247076,-0.0002503829962396971,-0.0004703515579215484,1.9987000226974487,40.69764935247076,0.0012311008758842945,-0.0025093606673181057,9.809922218322754,0.0,0.0,0.0,180.4325199079582,0.0,0.0,0.0,0.0,False,False
2026-05-13T18:28:04.781,1395,40.885187089661486,-0.0002503829962396971,-0.0004703515579215484,1.9987000226974487,40.885187089661486,-0.0012311008758842945,0.0025093606673181057,9.810078620910645,0.0,0.0,0.0,180.4325199079582,0.0,0.0,0.0,0.0,False,False
2026-05-13T18:28:04.827,1396,40.97611132285965,-0.0002503829962396971,-0.0004703515579215484,1.9987000226974487,40.97611132285965,-0.0012311008758842945,0.0025093606673181057,9.810078620910645,0.0,0.0,0.0,180.4325199079582,0.0,0.0,0.0,0.0,False,False
2026-05-13T18:28:05.007,1400,41.11219536907447,-0.0002503829962396971,-0.0004703515579215484,1.9987000226974487,41.11219536907447,0.0,0.0,9.8100004196167,0.0,0.0,0.0,180.4325199079582,0.0,0.0,0.0,0.0,False,False
2026-05-13T18:28:05.056,1401,41.204741563866264,-0.0002503829962396971,-0.0004703515579215484,1.9987000226974487,41.204741563866264,1.886347308754921e-05,0.002499928930774331,9.8100004196167,0.0,0.0,0.0,180.4325199079582,0.0,0.0,0.0,0.0,False,False
2026-05-13T18:28:05.245,1405,41.348475489983684,-0.0002503829962396971,-0.0004703515579215484,1.9987000226974487,41.348475489983684,0.0,0.0,9.8100004196167,0.0,0.0,0.0,180.4325199079582,0.0,0.0,0.0,0.0,False,False
2026-05-13T18:28:05.291,1406,41.43986613325251,-0.0002503829962396971,-0.0004703515579215484,1.9987000226974487,41.43986613325251,-0.0012499644653871655,9.431736543774605e-06,9.81015682220459,0.0,0.0,0.0,180.4325199079582,0.0,0.0,0.0,0.0,False,False
2026-05-13T18:28:05.473,1410,41.57664972938073,-0.0002503829962396971,-0.0004703515579215484,1.9987000226974487,41.57664972938073,-1.886347308754921e-05,-0.002499928930774331,9.8100004196167,0.0,0.0,0.0,180.4325199079582,0.0,0.0,0.0,0.0,False,False
2026-05-13T18:28:05.520,1411,41.62223871819151,-0.0002503829962396971,-0.0004703515579215484,1.9987000226974487,41.62223871819151,-1.886347308754921e-05,-0.002499928930774331,9.8100004196167,0.0,0.0,0.0,180.4325199079582,0.0,0.0,0.0,0.0,False,False
2026-05-13T18:28:05.713,1415,41.86076982341183,-0.0002503829962396971,-0.0004703515579215484,1.9987000226974487,41.80396622068656,0.0012311008758842945,-0.0025093606673181057,9.809922218322754,0.0,0.0,0.0,180.4325199079582,0.0,0.0,0.0,0.0,False,False
2026-05-13T18:28:05.766,1416,41.86076982341183,-0.0002503829962396971,-0.0004703515579215484,1.9987000226974487,41.86076982341183,-0.002499928930774331,1.886347308754921e-05,9.810078620910645,0.0,0.0,0.0,180.4325199079582,0.0,0.0,0.0,0.0,False,False
2026-05-13T18:28:05.950,1420,42.05303809441102,-0.0002503829962396971,-0.0004703515579215484,1.9987000226974487,42.05303809441102,0.0,0.0,9.81015682220459,0.0,0.0,0.0,180.4325199079582,0.0,0.0,0.0,0.0,False,False
2026-05-13T18:28:05.996,1421,42.09896685204876,-0.0002503829962396971,-0.0004703515579215484,1.9987000226974487,42.09896685204876,0.0012311008758842945,-0.0025093606673181057,9.809844017028809,0.0,0.0,0.0,180.4325199079582,0.0,0.0,0.0,0.0,False,False
2026-05-13T18:28:06.178,1425,42.326953295836574,-0.0002503829962396971,-0.0004703515579215484,1.9987000226974487,42.28167826331628,0.0012311008758842945,-0.0025093606673181057,9.809922218322754,0.0,0.0,0.0,180.4325199079582,0.0,0.0,0.0,0.0,False,False
2026-05-13T18:28:06.224,1426,42.326953295836574,-0.0002503829962396971,-0.0004703515579215484,1.9987000226974487,42.326953295836574,-0.0012311008758842945,0.0025093606673181057,9.8100004196167,0.0,0.0,0.0,180.4325199079582,0.0,0.0,0.0,0.0,False,False
2026-05-13T18:28:06.407,1430,42.55637941531313,-0.0002503829962396971,-0.0004703515579215484,1.9987000226974487,42.55637941531313,0.0012311008758842945,-0.0025093606673181057,9.809922218322754,0.0,0.0,0.0,180.4325199079582,0.0,0.0,0.0,0.0,False,False
2026-05-13T18:28:06.453,1431,42.601888727615005,-0.0002503829962396971,-0.0004703515579215484,1.9987000226974487,42.55637941531313,0.0012311008758842945,-0.0025093606673181057,9.809922218322754,0.0,0.0,0.0,180.4325199079582,0.0,0.0,0.0,0.0,False,False
2026-05-13T18:28:06.634,1435,42.78316872961295,-0.0002503829962396971,-0.0004703515579215484,1.9987000226974487,42.737257715532905,-0.002462201751768589,0.005018721334636211,9.810078620910645,0.0,0.0,0.0,180.4325199079582,0.0,0.0,0.0,0.0,False,False
2026-05-13T18:28:06.679,1436,42.78316872961295,-0.0002503829962396971,-0.0004703515579215484,1.9987000226974487,42.78316872961295,-0.0012311008758842945,0.0025093606673181057,9.810078620910645,0.0,0.0,0.0,180.4325199079582,0.0,0.0,0.0,0.0,False,False
2026-05-13T18:28:06.865,1440,42.96380787364615,-0.0002503829962396971,-0.0004703515579215484,1.9987000226974487,42.96380787364615,0.0024810656905174255,-0.0025187924038618803,9.809922218322754,0.0,0.0,0.0,180.4325199079582,0.0,0.0,0.0,0.0,False,False
2026-05-13T18:28:06.911,1441,43.01339916534198,-0.0002503829962396971,-0.0004703515579215484,1.9987000226974487,43.01339916534198,-0.0012688279384747148,-0.0024904971942305565,9.810078620910645,0.0,0.0,0.0,180.4325199079582,0.0,0.0,0.0,0.0,False,False
2026-05-13T18:28:07.095,1445,43.2440207342006,-0.0002503829962396971,-0.0004703515579215484,1.9987000226974487,43.2440207342006,-1.886347308754921e-05,-0.002499928930774331,9.8100004196167,0.0,0.0,0.0,180.4325199079582,0.0,0.0,0.0,0.0,False,False
2026-05-13T18:28:07.141,1446,43.2440207342006,-0.0002503829962396971,-0.0004703515579215484,1.9987000226974487,43.2440207342006,-1.886347308754921e-05,-0.002499928930774331,9.8100004196167,0.0,0.0,0.0,180.4325199079582,0.0,0.0,0.0,0.0,False,False
2026-05-13T18:28:07.322,1450,43.42630302182806,-0.0002503829962396971,-0.0004703515579215484,1.9987000226974487,43.42630302182806,0.002499928930774331,-1.886347308754921e-05,9.809922218322754,0.0,0.0,0.0,180.4325199079582,0.0,0.0,0.0,0.0,False,False
2026-05-13T18:28:07.368,1451,43.47075790561212,-0.0002503829962396971,-0.0004703515579215484,1.9987000226974487,43.47075790561212,-0.0024810656905174255,0.0025187924038618803,9.810078620910645,0.0,0.0,0.0,180.4325199079582,0.0,0.0,0.0,0.0,False,False
2026-05-13T18:28:07.552,1455,43.700937431523926,-0.0002503829962396971,-0.0004703515579215484,1.9987000226974487,43.700937431523926,-0.0012499644653871655,9.431736543774605e-06,9.809922218322754,0.0,0.0,0.0,180.4325199079582,0.0,0.0,0.0,0.0,False,False
2026-05-13T18:28:07.598,1456,43.700937431523926,-0.0002503829962396971,-0.0004703515579215484,1.9987000226974487,43.700937431523926,-0.0012499644653871655,9.431736543774605e-06,9.809922218322754,0.0,0.0,0.0,180.4325199079582,0.0,0.0,0.0,0.0,False,False
2026-05-13T18:28:07.779,1460,43.928025655666715,-0.0002503829962396971,-0.0004703515579215484,1.9987000226974487,43.928025655666715,0.002462201751768589,-0.005018721334636211,9.809844017028809,0.0,0.0,0.0,180.4325199079582,0.0,0.0,0.0,0.0,False,False
2026-05-13T18:28:07.825,1461,43.97366536430491,-0.0002503829962396971,-0.0004703515579215484,1.9987000226974487,43.97366536430491,-0.0012311008758842945,0.0025093606673181057,9.8100004196167,0.0,0.0,0.0,180.4325199079582,0.0,0.0,0.0,0.0,False,False
2026-05-13T18:28:08.010,1465,44.113751009324915,-0.0002503829962396971,-0.0004703515579215484,1.9987000226974487,44.113751009324915,0.0,0.0,9.809922218322754,0.0,0.0,0.0,180.4325199079582,0.0,0.0,0.0,0.0,False,False
2026-05-13T18:28:08.068,1466,44.159017496029264,-0.0002503829962396971,-0.0004703515579215484,1.9987000226974487,44.159017496029264,-0.0012311008758842945,0.0025093606673181057,9.810078620910645,0.0,0.0,0.0,180.4325199079582,0.0,0.0,0.0,0.0,False,False
2026-05-13T18:28:08.267,1470,44.36779791138542,-0.0002503829962396971,-0.0004703515579215484,1.9987000226974487,44.36779791138542,1.886347308754921e-05,0.002499928930774331,9.810078620910645,0.0,0.0,0.0,180.4325199079582,0.0,0.0,0.0,0.0,False,False
2026-05-13T18:28:08.314,1471,44.46311729050649,-0.0002503829962396971,-0.0004703515579215484,1.9987000226974487,44.41619225985778,0.0012499644653871655,-9.431736543774605e-06,9.8100004196167,0.0,0.0,0.0,180.4325199079582,0.0,0.0,0.0,0.0,False,False
2026-05-13T18:28:08.497,1475,44.60041268191708,-0.0002503829962396971,-0.0004703515579215484,1.9987000226974487,44.60041268191708,-0.0024810656905174255,0.0025187924038618803,9.810078620910645,0.0,0.0,0.0,180.4325199079582,0.0,0.0,0.0,0.0,False,False
2026-05-13T18:28:08.548,1476,44.64629851676,-0.0002503829962396971,-0.0004703515579215484,1.9987000226974487,44.64629851676,0.0,0.0,9.8100004196167,0.0,0.0,0.0,180.4325199079582,0.0,0.0,0.0,0.0,False,False
2026-05-13T18:28:08.730,1480,44.83534985430015,-0.0002503829962396971,-0.0004703515579215484,1.9987000226974487,44.83534985430015,0.0024810656905174255,-0.0025187924038618803,9.809922218322754,0.0,0.0,0.0,180.4325199079582,0.0,0.0,0.0,0.0,False,False
2026-05-13T18:28:08.778,1481,44.879647478679544,-0.0002503829962396971,-0.0004703515579215484,1.9987000226974487,44.879647478679544,-0.0036933021619915962,0.007528082467615604,9.810078620910645,0.0,0.0,0.0,180.4325199079582,0.0,0.0,0.0,0.0,False,False
2026-05-13T18:28:08.961,1485,45.10972636587394,-0.0002503829962396971,-0.0004703515579215484,1.9987000226974487,45.10972636587394,0.0012311008758842945,-0.0025093606673181057,9.8100004196167,0.0,0.0,0.0,180.4325199079582,0.0,0.0,0.0,0.0,False,False
2026-05-13T18:28:09.007,1486,45.15628207124246,-0.0002503829962396971,-0.0004703515579215484,1.9987000226974487,45.15628207124246,0.0,0.0,9.810078620910645,0.0,0.0,0.0,180.4325199079582,0.0,0.0,0.0,0.0,False,False
2026-05-13T18:28:09.200,1490,45.30175846464408,-0.0002503829962396971,-0.0004703515579215484,1.9987000226974487,45.30175846464408,0.0012499644653871655,-9.431736543774605e-06,9.810039520263672,0.0,0.0,0.0,180.4325199079582,0.0,0.0,0.0,0.0,False,False
2026-05-13T18:28:09.251,1491,45.39958844728244,-0.0002503829962396971,-0.0004703515579215484,1.9987000226974487,45.349508378873,0.0012311008758842945,-0.0025093606673181057,9.8100004196167,0.0,0.0,0.0,180.4325199079582,0.0,0.0,0.0,0.0,False,False
2026-05-13T18:28:09.446,1495,45.59522957004083,-0.0002503829962396971,-0.0004703515579215484,1.9987000226974487,45.54727488778008,0.0012405328452587128,-0.0012593962019309402,9.8100004196167,0.0,0.0,0.0,180.4325199079582,0.0,0.0,0.0,0.0,False,False
2026-05-13T18:28:09.494,1496,45.59522957004083,-0.0002503829962396971,-0.0004703515579215484,1.9987000226974487,45.59522957004083,0.0012499644653871655,-9.431736543774605e-06,9.809922218322754,0.0,0.0,0.0,180.4325199079582,0.0,0.0,0.0,0.0,False,False
2026-05-13T18:28:09.688,1500,45.83701609096897,-0.0002503829962396971,-0.0004703515579215484,1.9987000226974487,45.83701609096897,0.0012499644653871655,-9.431736543774605e-06,9.809844017028809,0.0,0.0,0.0,180.4325199079582,0.0,0.0,0.0,0.0,False,False
2026-05-13T18:28:09.734,1501,45.83701609096897,-0.0002503829962396971,-0.0004703515579215484,1.9987000226974487,45.83701609096897,0.0012499644653871655,-9.431736543774605e-06,9.809844017028809,0.0,0.0,0.0,180.4325199079582,0.0,0.0,0.0,0.0,False,False
2026-05-13T18:28:09.919,1505,46.02110361702216,-0.0002503829962396971,-0.0004703515579215484,1.9987000226974487,46.02110361702216,-1.886347308754921e-05,-0.002499928930774331,9.8100004196167,0.0,0.0,0.0,180.4325199079582,0.0,0.0,0.0,0.0,False,False
2026-05-13T18:28:09.968,1506,46.11727914608491,-0.0002503829962396971,-0.0004703515579215484,1.9987000226974487,46.11727914608491,-0.0012499644653871655,9.431736543774605e-06,9.8100004196167,0.0,0.0,0.0,180.4325199079582,0.0,0.0,0.0,0.0,False,False
2026-05-13T18:28:10.159,1510,46.262709629008896,-0.0002503829962396971,-0.0004703515579215484,1.9987000226974487,46.262709629008896,-0.0012499644653871655,9.431736543774605e-06,9.810078620910645,0.0,0.0,0.0,180.4325199079582,0.0,0.0,0.0,0.0,False,False
2026-05-13T18:28:10.205,1511,46.30817142523301,-0.0002503829962396971,-0.0004703515579215484,1.9987000226974487,46.30817142523301,-0.0012311008758842945,0.0025093606673181057,9.8100004196167,0.0,0.0,0.0,180.4325199079582,0.0,0.0,0.0,0.0,False,False
2026-05-13T18:28:10.398,1515,46.4994272703625,-0.0002503829962396971,-0.0004703515579215484,1.9987000226974487,46.4994272703625,0.0024433378130197525,-0.007518650498241186,9.809922218322754,0.0,0.0,0.0,180.4325199079582,0.0,0.0,0.0,0.0,False,False
2026-05-13T18:28:10.446,1516,46.59477429486287,-0.0002503829962396971,-0.0004703515579215484,1.9987000226974487,46.59477429486287,-0.002462201751768589,0.005018721334636211,9.81015682220459,0.0,0.0,0.0,180.4325199079582,0.0,0.0,0.0,0.0,False,False
2026-05-13T18:28:10.640,1520,46.73513523883594,-0.0002503829962396971,-0.0004703515579215484,1.9987000226974487,46.73513523883594,-0.0012311008758842945,0.0025093606673181057,9.8100004196167,0.0,0.0,0.0,180.4325199079582,0.0,0.0,0.0,0.0,False,False
2026-05-13T18:28:10.693,1521,46.84109839446319,-0.0002503829962396971,-0.0004703515579215484,1.9987000226974487,46.84109839446319,-0.0006155504379421473,0.0012546803336590528,9.810078620910645,0.0,0.0,0.0,180.4325199079582,0.0,0.0,0.0,0.0,False,False
2026-05-13T18:28:10.899,1525,46.997213069567806,-0.0002503829962396971,-0.0004703515579215484,1.9987000226974487,46.997213069567806,0.0006344139692373574,0.0012452485971152782,9.8100004196167,0.0,0.0,0.0,180.4325199079582,0.0,0.0,0.0,0.0,False,False
2026-05-13T18:28:10.951,1526,47.048173178205616,-0.0002503829962396971,-0.0004703515579215484,1.9987000226974487,47.048173178205616,-0.0012499644653871655,9.431736543774605e-06,9.810039520263672,0.0,0.0,0.0,180.4325199079582,0.0,0.0,0.0,0.0,False,False
2026-05-13T18:28:11.143,1530,47.242961816707975,-0.0002503829962396971,-0.0004703515579215484,1.9987000226974487,47.242961816707975,0.0012311008758842945,-0.0025093606673181057,9.809844017028809,0.0,0.0,0.0,180.4325199079582,0.0,0.0,0.0,0.0,False,False
2026-05-13T18:28:11.192,1531,47.34076762593759,-0.0002503829962396971,-0.0004703515579215484,1.9987000226974487,47.29178934566153,-0.0012311008758842945,0.0025093606673181057,9.810078620910645,0.0,0.0,0.0,180.4325199079582,0.0,0.0,0.0,0.0,False,False
2026-05-13T18:28:11.379,1535,47.52840572617424,-0.0002503829962396971,-0.0004703515579215484,1.9987000226974487,47.482423216322786,-0.0012499644653871655,9.431736543774605e-06,9.810078620910645,0.0,0.0,0.0,180.4325199079582,0.0,0.0,0.0,0.0,False,False
2026-05-13T18:28:11.426,1536,47.57478747166169,-0.0002503829962396971,-0.0004703515579215484,1.9987000226974487,47.52840572617424,-0.0012499644653871655,9.431736543774605e-06,9.810078620910645,0.0,0.0,0.0,180.4325199079582,0.0,0.0,0.0,0.0,False,False
2026-05-13T18:28:11.610,1540,47.71367498509062,-0.0002503829962396971,-0.0004703515579215484,1.9987000226974487,47.71367498509062,-0.0012122374027967453,0.0050092898309230804,9.81015682220459,0.0,0.0,0.0,180.4325199079582,0.0,0.0,0.0,0.0,False,False
2026-05-13T18:28:11.657,1541,47.758967504123575,-0.0002503829962396971,-0.0004703515579215484,1.9987000226974487,47.758967504123575,-0.0012311008758842945,0.0025093606673181057,9.8100004196167,0.0,0.0,0.0,180.4325199079582,0.0,0.0,0.0,0.0,False,False
2026-05-13T18:28:11.842,1545,47.9914911652304,-0.0002503829962396971,-0.0004703515579215484,1.9987000226974487,47.945918925324804,0.0024433378130197525,-0.007518650498241186,9.809844017028809,0.0,0.0,0.0,180.4325199079582,0.0,0.0,0.0,0.0,False,False
2026-05-13T18:28:11.889,1546,47.9914911652304,-0.0002503829962396971,-0.0004703515579215484,1.9987000226974487,47.9914911652304,-0.004962131381034851,0.005037584807723761,9.81015682220459,0.0,0.0,0.0,180.4325199079582,0.0,0.0,0.0,0.0,False,False
2026-05-13T18:28:12.079,1550,48.181462597320206,-0.0002503829962396971,-0.0004703515579215484,1.9987000226974487,48.181462597320206,-0.0012311008758842945,0.0025093606673181057,9.81015682220459,0.0,0.0,0.0,180.4325199079582,0.0,0.0,0.0,0.0,False,False
2026-05-13T18:28:12.127,1551,48.228207405874855,-0.0002503829962396971,-0.0004703515579215484,1.9987000226974487,48.228207405874855,0.0,0.0,9.810078620910645,0.0,0.0,0.0,180.4325199079582,0.0,0.0,0.0,0.0,False,False
2026-05-13T18:28:12.320,1555,48.46869886688364,-0.0002503829962396971,-0.0004703515579215484,1.9987000226974487,48.46869886688364,0.0012499644653871655,-9.431736543774605e-06,9.8100004196167,0.0,0.0,0.0,180.4325199079582,0.0,0.0,0.0,0.0,False,False
2026-05-13T18:28:12.377,1556,48.46869886688364,-0.0002503829962396971,-0.0004703515579215484,1.9987000226974487,48.46869886688364,0.0012499644653871655,-9.431736543774605e-06,9.8100004196167,0.0,0.0,0.0,180.4325199079582,0.0,0.0,0.0,0.0,False,False
2026-05-13T18:28:12.587,1560,48.69000542185677,-0.0002503829962396971,-0.0004703515579215484,1.9987000226974487,48.69000542185677,2.8295675292611122e-05,0.0037498935125768185,9.810039520263672,0.0,0.0,0.0,180.4325199079582,0.0,0.0,0.0,0.0,False,False
2026-05-13T18:28:12.635,1561,48.73642150707019,-0.0002503829962396971,-0.0004703515579215484,1.9987000226974487,48.73642150707019,0.0012499644653871655,-9.431736543774605e-06,9.8100004196167,0.0,0.0,0.0,180.4325199079582,0.0,0.0,0.0,0.0,False,False
2026-05-13T18:28:12.823,1565,48.972019266555435,-0.0002503829962396971,-0.0004703515579215484,1.9987000226974487,48.972019266555435,-0.0024810656905174255,0.0025187924038618803,9.810078620910645,0.0,0.0,0.0,180.4325199079582,0.0,0.0,0.0,0.0,False,False
2026-05-13T18:28:12.870,1566,49.01919185764564,-0.0002503829962396971,-0.0004703515579215484,1.9987000226974487,48.972019266555435,-0.0024810656905174255,0.0025187924038618803,9.810078620910645,0.0,0.0,0.0,180.4325199079582,0.0,0.0,0.0,0.0,False,False
2026-05-13T18:28:13.069,1570,49.16841659716738,-0.0002503829962396971,-0.0004703515579215484,1.9987000226974487,49.16841659716738,-1.886347308754921e-05,-0.002499928930774331,9.809961318969727,0.0,0.0,0.0,180.4325199079582,0.0,0.0,0.0,0.0,False,False
2026-05-13T18:28:13.117,1571,49.26587466544879,-0.0002503829962396971,-0.0004703515579215484,1.9987000226974487,49.26587466544879,0.0012499644653871655,-9.431736543774605e-06,9.810078620910645,0.0,0.0,0.0,180.4325199079582,0.0,0.0,0.0,0.0,False,False
2026-05-13T18:28:13.305,1575,49.40867378584517,-0.0002503829962396971,-0.0004703515579215484,1.9987000226974487,49.40867378584517,0.0,0.0,9.809844017028809,0.0,0.0,0.0,180.4325199079582,0.0,0.0,0.0,0.0,False,False
2026-05-13T18:28:13.352,1576,49.45404507614148,-0.0002503829962396971,-0.0004703515579215484,1.9987000226974487,49.45404507614148,0.0,0.0,9.809922218322754,0.0,0.0,0.0,180.4325199079582,0.0,0.0,0.0,0.0,False,False
2026-05-13T18:28:13.540,1580,49.641006384263164,-0.0002503829962396971,-0.0004703515579215484,1.9987000226974487,49.641006384263164,-0.0024810656905174255,0.0025187924038618803,9.810078620910645,0.0,0.0,0.0,180.4325199079582,0.0,0.0,0.0,0.0,False,False
2026-05-13T18:28:13.587,1581,49.68912949434889,-0.0002503829962396971,-0.0004703515579215484,1.9987000226974487,49.68912949434889,0.0012122374027967453,-0.0050092898309230804,9.809922218322754,0.0,0.0,0.0,180.4325199079582,0.0,0.0,0.0,0.0,False,False
2026-05-13T18:28:13.777,1585,49.87949392593873,-0.0002503829962396971,-0.0004703515579215484,1.9987000226974487,49.87949392593873,0.002499928930774331,-1.886347308754921e-05,9.809844017028809,0.0,0.0,0.0,180.4325199079582,0.0,0.0,0.0,0.0,False,False
2026-05-13T18:28:13.823,1586,49.972015388528234,-0.0002503829962396971,-0.0004703515579215484,1.9987000226974487,49.92584301180614,-0.0012311008758842945,0.0025093606673181057,9.809922218322754,0.0,0.0,0.0,180.4325199079582,0.0,0.0,0.0,0.0,False,False
2026-05-13T18:28:14.004,1590,50.108355440417654,-0.0002503829962396971,-0.0004703515579215484,1.9987000226974487,50.108355440417654,-0.0024433378130197525,0.007518650498241186,9.810235023498535,0.0,0.0,0.0,180.4325199079582,0.0,0.0,0.0,0.0,False,False
2026-05-13T18:28:14.050,1591,50.199673522482044,-0.0002503829962396971,-0.0004703515579215484,1.9987000226974487,50.199673522482044,0.0036933021619915962,-0.007528082467615604,9.809844017028809,0.0,0.0,0.0,180.4325199079582,0.0,0.0,0.0,0.0,False,False
2026-05-13T18:28:14.237,1595,50.38603517434967,-0.0002503829962396971,-0.0004703515579215484,1.9987000226974487,50.3355062717892,0.0012122374027967453,-0.0050092898309230804,9.809922218322754,0.0,0.0,0.0,180.4325199079582,0.0,0.0,0.0,0.0,False,False
2026-05-13T18:28:14.287,1596,50.38603517434967,-0.0002503829962396971,-0.0004703515579215484,1.9987000226974487,50.38603517434967,-0.0012311008758842945,0.0025093606673181057,9.810078620910645,0.0,0.0,0.0,180.4325199079582,0.0,0.0,0.0,0.0,False,False
2026-05-13T18:28:14.473,1600,50.577987145850784,-0.0002503829962396971,-0.0004703515579215484,1.9987000226974487,50.577987145850784,-0.0012311008758842945,0.0025093606673181057,9.81015682220459,0.0,0.0,0.0,180.4325199079582,0.0,0.0,0.0,0.0,False,False
2026-05-13T18:28:14.520,1601,50.62282387189043,-0.0002503829962396971,-0.0004703515579215484,1.9987000226974487,50.62282387189043,0.0,0.0,9.8100004196167,0.0,0.0,0.0,180.4325199079582,0.0,0.0,0.0,0.0,False,False
2026-05-13T18:28:14.706,1605,50.854714066008455,-0.0002503829962396971,-0.0004703515579215484,1.9987000226974487,50.854714066008455,-0.0037310300394892693,0.002528224606066942,9.81015682220459,0.0,0.0,0.0,180.4325199079582,0.0,0.0,0.0,0.0,False,False
2026-05-13T18:28:14.752,1606,50.901690405080444,-0.0002503829962396971,-0.0004703515579215484,1.9987000226974487,50.854714066008455,-0.0037310300394892693,0.002528224606066942,9.81015682220459,0.0,0.0,0.0,180.4325199079582,0.0,0.0,0.0,0.0,False,False
2026-05-13T18:28:14.943,1610,51.09210468477977,-0.0002503829962396971,-0.0004703515579215484,1.9987000226974487,51.09210468477977,0.0012311008758842945,-0.0025093606673181057,9.809922218322754,0.0,0.0,0.0,180.4325199079582,0.0,0.0,0.0,0.0,False,False
2026-05-13T18:28:14.989,1611,51.09210468477977,-0.0002503829962396971,-0.0004703515579215484,1.9987000226974487,51.09210468477977,0.0012311008758842945,-0.0025093606673181057,9.809922218322754,0.0,0.0,0.0,180.4325199079582,0.0,0.0,0.0,0.0,False,False
2026-05-13T18:28:15.178,1615,51.28189168519748,-0.0002503829962396971,-0.0004703515579215484,1.9987000226974487,51.28189168519748,-0.0012311008758842945,0.0025093606673181057,9.8100004196167,0.0,0.0,0.0,180.4325199079582,0.0,0.0,0.0,0.0,False,False
2026-05-13T18:28:15.223,1616,51.3269094342686,-0.0002503829962396971,-0.0004703515579215484,1.9987000226974487,51.3269094342686,-0.0011933734640479088,0.007509218994528055,9.810235023498535,0.0,0.0,0.0,180.4325199079582,0.0,0.0,0.0,0.0,False,False
2026-05-13T18:28:15.414,1620,51.51272969714773,-0.0002503829962396971,-0.0004703515579215484,1.9987000226974487,51.51272969714773,-0.0012499644653871655,9.431736543774605e-06,9.8100004196167,0.0,0.0,0.0,180.4325199079582,0.0,0.0,0.0,0.0,False,False
2026-05-13T18:28:15.462,1621,51.6110539475776,-0.0002503829962396971,-0.0004703515579215484,1.9987000226974487,51.56365682951582,0.0012311008758842945,-0.0025093606673181057,9.809922218322754,0.0,0.0,0.0,180.4325199079582,0.0,0.0,0.0,0.0,False,False
2026-05-13T18:28:15.655,1625,51.80430686868203,-0.0002503829962396971,-0.0004703515579215484,1.9987000226974487,51.75691060743702,1.886347308754921e-05,0.002499928930774331,9.8100004196167,0.0,0.0,0.0,180.4325199079582,0.0,0.0,0.0,0.0,False,False
2026-05-13T18:28:15.704,1626,51.80430686868203,-0.0002503829962396971,-0.0004703515579215484,1.9987000226974487,51.80430686868203,0.0012311008758842945,-0.0025093606673181057,9.8100004196167,0.0,0.0,0.0,180.4325199079582,0.0,0.0,0.0,0.0,False,False
2026-05-13T18:28:15.896,1630,51.996630165944225,-0.0002503829962396971,-0.0004703515579215484,1.9987000226974487,51.996630165944225,1.886347308754921e-05,0.002499928930774331,9.8100004196167,0.0,0.0,0.0,180.4325199079582,0.0,0.0,0.0,0.0,False,False
2026-05-13T18:28:15.943,1631,52.09200916088594,-0.0002503829962396971,-0.0004703515579215484,1.9987000226974487,52.09200916088594,0.002499928930774331,-1.886347308754921e-05,9.8100004196167,0.0,0.0,0.0,180.4325199079582,0.0,0.0,0.0,0.0,False,False
2026-05-13T18:28:16.138,1635,52.2385643201269,-0.0002503829962396971,-0.0004703515579215484,1.9987000226974487,52.2385643201269,-1.886347308754921e-05,-0.002499928930774331,9.8100004196167,0.0,0.0,0.0,180.4325199079582,0.0,0.0,0.0,0.0,False,False
2026-05-13T18:28:16.186,1636,52.28707717008365,-0.0002503829962396971,-0.0004703515579215484,1.9987000226974487,52.28707717008365,-0.0012499644653871655,9.431736543774605e-06,9.81015682220459,0.0,0.0,0.0,180.4325199079582,0.0,0.0,0.0,0.0,False,False
2026-05-13T18:28:16.370,1640,52.47371815911902,-0.0002503829962396971,-0.0004703515579215484,1.9987000226974487,52.47371815911902,-0.0012311008758842945,0.0025093606673181057,9.8100004196167,0.0,0.0,0.0,180.4325199079582,0.0,0.0,0.0,0.0,False,False
2026-05-13T18:28:16.417,1641,52.566209506461746,-0.0002503829962396971,-0.0004703515579215484,1.9987000226974487,52.566209506461746,-1.886347308754921e-05,-0.002499928930774331,9.8100004196167,0.0,0.0,0.0,180.4325199079582,0.0,0.0,0.0,0.0,False,False
2026-05-13T18:28:16.605,1645,52.70780048168672,-0.0002503829962396971,-0.0004703515579215484,1.9987000226974487,52.70780048168672,1.886347308754921e-05,0.002499928930774331,9.810078620910645,0.0,0.0,0.0,180.4325199079582,0.0,0.0,0.0,0.0,False,False
2026-05-13T18:28:16.655,1646,52.754513450185186,-0.0002503829962396971,-0.0004703515579215484,1.9987000226974487,52.754513450185186,0.0012311008758842945,-0.0025093606673181057,9.809844017028809,0.0,0.0,0.0,180.4325199079582,0.0,0.0,0.0,0.0,False,False
2026-05-13T18:28:16.839,1650,52.987561777452356,-0.0002503829962396971,-0.0004703515579215484,1.9987000226974487,52.987561777452356,-1.886347308754921e-05,-0.002499928930774331,9.8100004196167,0.0,0.0,0.0,180.4325199079582,0.0,0.0,0.0,0.0,False,False
2026-05-13T18:28:16.886,1651,53.03532599307073,-0.0002503829962396971,-0.0004703515579215484,1.9987000226974487,52.987561777452356,-1.886347308754921e-05,-0.002499928930774331,9.8100004196167,0.0,0.0,0.0,180.4325199079582,0.0,0.0,0.0,0.0,False,False
2026-05-13T18:28:17.071,1655,53.17443272865785,-0.0002503829962396971,-0.0004703515579215484,1.9987000226974487,53.17443272865785,-0.0012311008758842945,0.0025093606673181057,9.8100004196167,0.0,0.0,0.0,180.4325199079582,0.0,0.0,0.0,0.0,False,False
2026-05-13T18:28:17.123,1656,53.22042008511198,-0.0002503829962396971,-0.0004703515579215484,1.9987000226974487,53.22042008511198,0.0012499644653871655,-9.431736543774605e-06,9.810078620910645,0.0,0.0,0.0,180.4325199079582,0.0,0.0,0.0,0.0,False,False
2026-05-13T18:28:17.305,1660,53.40973749406112,-0.0002503829962396971,-0.0004703515579215484,1.9987000226974487,53.40973749406112,0.002462201751768589,-0.005018721334636211,9.809844017028809,0.0,0.0,0.0,180.4325199079582,0.0,0.0,0.0,0.0,False,False
2026-05-13T18:28:17.351,1661,53.499912586281425,-0.0002503829962396971,-0.0004703515579215484,1.9987000226974487,53.499912586281425,3.772694617509842e-05,0.004999857861548662,9.810078620910645,0.0,0.0,0.0,180.4325199079582,0.0,0.0,0.0,0.0,False,False
2026-05-13T18:28:17.537,1665,53.68615513689292,-0.0002503829962396971,-0.0004703515579215484,1.9987000226974487,53.639989905277616,-0.0024810656905174255,0.0025187924038618803,9.810078620910645,0.0,0.0,0.0,180.4325199079582,0.0,0.0,0.0,0.0,False,False
2026-05-13T18:28:17.582,1666,53.731614761272795,-0.0002503829962396971,-0.0004703515579215484,1.9987000226974487,53.731614761272795,-0.0012499644653871655,9.431736543774605e-06,9.810078620910645,0.0,0.0,0.0,180.4325199079582,0.0,0.0,0.0,0.0,False,False
2026-05-13T18:28:17.769,1670,53.918352775493986,-0.0002503829962396971,-0.0004703515579215484,1.9987000226974487,53.918352775493986,-0.002462201751768589,0.005018721334636211,9.81015682220459,0.0,0.0,0.0,180.4325199079582,0.0,0.0,0.0,0.0,False,False
2026-05-13T18:28:17.817,1671,53.918352775493986,-0.0002503829962396971,-0.0004703515579215484,1.9987000226974487,53.918352775493986,-0.002462201751768589,0.005018721334636211,9.81015682220459,0.0,0.0,0.0,180.4325199079582,0.0,0.0,0.0,0.0,False,False
2026-05-13T18:28:18.004,1675,54.107428074101335,-0.0002503829962396971,-0.0004703515579215484,1.9987000226974487,54.107428074101335,0.0,0.0,9.809922218322754,0.0,0.0,0.0,180.4325199079582,0.0,0.0,0.0,0.0,False,False
2026-05-13T18:28:18.051,1676,54.20052111543191,-0.0002503829962396971,-0.0004703515579215484,1.9987000226974487,54.15274905062688,-0.0012499644653871655,9.431736543774605e-06,9.8100004196167,0.0,0.0,0.0,180.4325199079582,0.0,0.0,0.0,0.0,False,False
2026-05-13T18:28:18.234,1680,54.33779980636609,-0.0002503829962396971,-0.0004703515579215484,1.9987000226974487,54.33779980636609,-0.0024810656905174255,0.0025187924038618803,9.810078620910645,0.0,0.0,0.0,180.4325199079582,0.0,0.0,0.0,0.0,False,False
2026-05-13T18:28:18.280,1681,54.38309409118665,-0.0002503829962396971,-0.0004703515579215484,1.9987000226974487,54.38309409118665,-0.0012688279384747148,-0.0024904971942305565,9.8100004196167,0.0,0.0,0.0,180.4325199079582,0.0,0.0,0.0,0.0,False,False
2026-05-13T18:28:18.465,1685,54.567514572510845,-0.0002503829962396971,-0.0004703515579215484,1.9987000226974487,54.567514572510845,0.0012311008758842945,-0.0025093606673181057,9.809922218322754,0.0,0.0,0.0,180.4325199079582,0.0,0.0,0.0,0.0,False,False
2026-05-13T18:28:18.512,1686,54.66149176679028,-0.0002503829962396971,-0.0004703515579215484,1.9987000226974487,54.61483449883235,0.0037310300394892693,-0.002528224606066942,9.809844017028809,0.0,0.0,0.0,180.4325199079582,0.0,0.0,0.0,0.0,False,False
2026-05-13T18:28:18.696,1690,54.845645420471556,-0.0002503829962396971,-0.0004703515579215484,1.9987000226974487,54.79994886017812,1.886347308754921e-05,0.002499928930774331,9.8100004196167,0.0,0.0,0.0,180.4325199079582,0.0,0.0,0.0,0.0,False,False
2026-05-13T18:28:18.743,1691,54.845645420471556,-0.0002503829962396971,-0.0004703515579215484,1.9987000226974487,54.845645420471556,-0.002462201751768589,0.005018721334636211,9.81015682220459,0.0,0.0,0.0,180.4325199079582,0.0,0.0,0.0,0.0,False,False
2026-05-13T18:28:18.926,1695,55.074836664120085,-0.0002503829962396971,-0.0004703515579215484,1.9987000226974487,55.029670663396246,0.002462201751768589,-0.005018721334636211,9.809844017028809,0.0,0.0,0.0,180.4325199079582,0.0,0.0,0.0,0.0,False,False
2026-05-13T18:28:18.970,1696,55.074836664120085,-0.0002503829962396971,-0.0004703515579215484,1.9987000226974487,55.074836664120085,-0.0012499644653871655,9.431736543774605e-06,9.810078620910645,0.0,0.0,0.0,180.4325199079582,0.0,0.0,0.0,0.0,False,False
2026-05-13T18:28:19.167,1700,55.270812075803406,-0.0002503829962396971,-0.0004703515579215484,1.9987000226974487,55.270812075803406,0.0012499644653871655,-9.431736543774605e-06,9.8100004196167,0.0,0.0,0.0,180.4325199079582,0.0,0.0,0.0,0.0,False,False
2026-05-13T18:28:19.214,1701,55.31659322626365,-0.0002503829962396971,-0.0004703515579215484,1.9987000226974487,55.31659322626365,0.0,0.0,9.8100004196167,0.0,0.0,0.0,180.4325199079582,0.0,0.0,0.0,0.0,False,False
2026-05-13T18:28:19.401,1705,55.503707111100084,-0.0002503829962396971,-0.0004703515579215484,1.9987000226974487,55.503707111100084,-1.886347308754921e-05,-0.002499928930774331,9.809922218322754,0.0,0.0,0.0,180.4325199079582,0.0,0.0,0.0,0.0,False,False
2026-05-13T18:28:19.447,1706,55.59595998025907,-0.0002503829962396971,-0.0004703515579215484,1.9987000226974487,55.54986686653865,0.0012311008758842945,-0.0025093606673181057,9.8100004196167,0.0,0.0,0.0,180.4325199079582,0.0,0.0,0.0,0.0,False,False
2026-05-13T18:28:19.636,1710,55.73879685647262,-0.0002503829962396971,-0.0004703515579215484,1.9987000226974487,55.73879685647262,3.772694617509842e-05,0.004999857861548662,9.81015682220459,0.0,0.0,0.0,180.4325199079582,0.0,0.0,0.0,0.0,False,False
2026-05-13T18:28:19.683,1711,55.78554702199472,-0.0002503829962396971,-0.0004703515579215484,1.9987000226974487,55.78554702199472,-0.0024810656905174255,0.0025187924038618803,9.810078620910645,0.0,0.0,0.0,180.4325199079582,0.0,0.0,0.0,0.0,False,False
2026-05-13T18:28:19.864,1715,56.01323113612307,-0.0002503829962396971,-0.0004703515579215484,1.9987000226974487,56.01323113612307,0.0037310300394892693,-0.002528224606066942,9.809844017028809,0.0,0.0,0.0,180.4325199079582,0.0,0.0,0.0,0.0,False,False
2026-05-13T18:28:19.913,1716,56.06160271189583,-0.0002503829962396971,-0.0004703515579215484,1.9987000226974487,56.06160271189583,3.772694617509842e-05,0.004999857861548662,9.8100004196167,0.0,0.0,0.0,180.4325199079582,0.0,0.0,0.0,0.0,False,False
2026-05-13T18:28:20.102,1720,56.204231195370085,-0.0002503829962396971,-0.0004703515579215484,1.9987000226974487,56.204231195370085,-0.0012499644653871655,9.431736543774605e-06,9.8100004196167,0.0,0.0,0.0,180.4325199079582,0.0,0.0,0.0,0.0,False,False
2026-05-13T18:28:20.154,1721,56.25115858785284,-0.0002503829962396971,-0.0004703515579215484,1.9987000226974487,56.25115858785284,0.0037498935125768185,-2.8295675292611122e-05,9.809844017028809,0.0,0.0,0.0,180.4325199079582,0.0,0.0,0.0,0.0,False,False
2026-05-13T18:28:20.350,1725,56.49934158496035,-0.0002503829962396971,-0.0004703515579215484,1.9987000226974487,56.49934158496035,-0.0012593962019309402,-0.0012405328452587128,9.8100004196167,0.0,0.0,0.0,180.4325199079582,0.0,0.0,0.0,0.0,False,False
2026-05-13T18:28:20.398,1726,56.49934158496035,-0.0002503829962396971,-0.0004703515579215484,1.9987000226974487,56.49934158496035,-0.0012593962019309402,-0.0012405328452587128,9.8100004196167,0.0,0.0,0.0,180.4325199079582,0.0,0.0,0.0,0.0,False,False
2026-05-13T18:28:20.583,1730,56.686130725065595,-0.0002503829962396971,-0.0004703515579215484,1.9987000226974487,56.686130725065595,-0.0012311008758842945,0.0025093606673181057,9.81015682220459,0.0,0.0,0.0,180.4325199079582,0.0,0.0,0.0,0.0,False,False
2026-05-13T18:28:20.628,1731,56.73197477705253,-0.0002503829962396971,-0.0004703515579215484,1.9987000226974487,56.73197477705253,-0.0012311008758842945,0.0025093606673181057,9.810078620910645,0.0,0.0,0.0,180.4325199079582,0.0,0.0,0.0,0.0,False,False
2026-05-13T18:28:20.813,1735,56.962487187454826,-0.0002503829962396971,-0.0004703515579215484,1.9987000226974487,56.962487187454826,0.0024433378130197525,-0.007518650498241186,9.809844017028809,0.0,0.0,0.0,180.4325199079582,0.0,0.0,0.0,0.0,False,False
2026-05-13T18:28:20.859,1736,57.008422441998846,-0.0002503829962396971,-0.0004703515579215484,1.9987000226974487,57.008422441998846,-1.886347308754921e-05,-0.002499928930774331,9.8100004196167,0.0,0.0,0.0,180.4325199079582,0.0,0.0,0.0,0.0,False,False
2026-05-13T18:28:21.042,1740,57.144570533404476,-0.0002503829962396971,-0.0004703515579215484,1.9987000226974487,57.144570533404476,0.002462201751768589,-0.005018721334636211,9.809922218322754,0.0,0.0,0.0,180.4325199079582,0.0,0.0,0.0,0.0,False,False
2026-05-13T18:28:21.087,1741,57.19129097483528,-0.0002503829962396971,-0.0004703515579215484,1.9987000226974487,57.19129097483528,-1.886347308754921e-05,-0.002499928930774331,9.8100004196167,0.0,0.0,0.0,180.4325199079582,0.0,0.0,0.0,0.0,False,False
2026-05-13T18:28:21.267,1745,57.37176765150798,-0.0002503829962396971,-0.0004703515579215484,1.9987000226974487,57.37176765150798,-0.0012311008758842945,0.0025093606673181057,9.810078620910645,0.0,0.0,0.0,180.4325199079582,0.0,0.0,0.0,0.0,False,False
2026-05-13T18:28:21.315,1746,57.41652826986683,-0.0002503829962396971,-0.0004703515579215484,1.9987000226974487,57.41652826986683,0.0012122374027967453,-0.0050092898309230804,9.809844017028809,0.0,0.0,0.0,180.4325199079582,0.0,0.0,0.0,0.0,False,False
2026-05-13T18:28:21.498,1750,57.60308873302711,-0.0002503829962396971,-0.0004703515579215484,1.9987000226974487,57.60308873302711,0.0024810656905174255,-0.0025187924038618803,9.809922218322754,0.0,0.0,0.0,180.4325199079582,0.0,0.0,0.0,0.0,False,False
2026-05-13T18:28:21.544,1751,57.64775301910413,-0.0002503829962396971,-0.0004703515579215484,1.9987000226974487,57.64775301910413,-0.0037121661007404327,0.005028153769671917,9.81015682220459,0.0,0.0,0.0,180.4325199079582,0.0,0.0,0.0,0.0,False,False
2026-05-13T18:28:21.726,1755,57.830183170954115,-0.0002503829962396971,-0.0004703515579215484,1.9987000226974487,57.830183170954115,0.0012311008758842945,-0.0025093606673181057,9.8100004196167,0.0,0.0,0.0,180.4325199079582,0.0,0.0,0.0,0.0,False,False
2026-05-13T18:28:21.771,1756,57.87568086780084,-0.0002503829962396971,-0.0004703515579215484,1.9987000226974487,57.87568086780084,0.002499928930774331,-1.886347308754921e-05,9.8100004196167,0.0,0.0,0.0,180.4325199079582,0.0,0.0,0.0,0.0,False,False
2026-05-13T18:28:21.951,1760,58.05625218174828,-0.0002503829962396971,-0.0004703515579215484,1.9987000226974487,58.05625218174828,0.002499928930774331,-1.886347308754921e-05,9.809922218322754,0.0,0.0,0.0,180.4325199079582,0.0,0.0,0.0,0.0,False,False
2026-05-13T18:28:21.998,1761,58.14733497820271,-0.0002503829962396971,-0.0004703515579215484,1.9987000226974487,58.10033865667356,-0.0012311008758842945,0.0025093606673181057,9.8100004196167,0.0,0.0,0.0,180.4325199079582,0.0,0.0,0.0,0.0,False,False
2026-05-13T18:28:22.200,1765,58.34915496803296,-0.0002503829962396971,-0.0004703515579215484,1.9987000226974487,58.292553823659546,0.00494326651096344,-0.007537513971328735,9.809844017028809,0.0,0.0,0.0,180.4325199079582,0.0,0.0,0.0,0.0,False,False
2026-05-13T18:28:22.251,1766,58.34915496803296,-0.0002503829962396971,-0.0004703515579215484,1.9987000226974487,58.34915496803296,-0.0012405328452587128,0.0012593962019309402,9.810078620910645,0.0,0.0,0.0,180.4325199079582,0.0,0.0,0.0,0.0,False,False
2026-05-13T18:28:22.447,1770,58.596280358950025,-0.0002503829962396971,-0.0004703515579215484,1.9987000226974487,58.54833850286377,0.0024810656905174255,-0.0025187924038618803,9.809844017028809,0.0,0.0,0.0,180.4325199079582,0.0,0.0,0.0,0.0,False,False
2026-05-13T18:28:22.496,1771,58.596280358950025,-0.0002503829962396971,-0.0004703515579215484,1.9987000226974487,58.596280358950025,0.0024810656905174255,-0.0025187924038618803,9.8100004196167,0.0,0.0,0.0,180.4325199079582,0.0,0.0,0.0,0.0,False,False
2026-05-13T18:28:22.682,1775,58.78415847964061,-0.0002503829962396971,-0.0004703515579215484,1.9987000226974487,58.78415847964061,1.886347308754921e-05,0.002499928930774331,9.8100004196167,0.0,0.0,0.0,180.4325199079582,0.0,0.0,0.0,0.0,False,False
2026-05-13T18:28:22.733,1776,58.83094065285695,-0.0002503829962396971,-0.0004703515579215484,1.9987000226974487,58.83094065285695,1.886347308754921e-05,0.002499928930774331,9.8100004196167,0.0,0.0,0.0,180.4325199079582,0.0,0.0,0.0,0.0,False,False
2026-05-13T18:28:22.923,1780,59.02435044221056,-0.0002503829962396971,-0.0004703515579215484,1.9987000226974487,59.02435044221056,-0.0012311008758842945,0.0025093606673181057,9.810078620910645,0.0,0.0,0.0,180.4325199079582,0.0,0.0,0.0,0.0,False,False
2026-05-13T18:28:22.971,1781,59.07243465281499,-0.0002503829962396971,-0.0004703515579215484,1.9987000226974487,59.07243465281499,-0.0036933021619915962,0.007528082467615604,9.81015682220459,0.0,0.0,0.0,180.4325199079582,0.0,0.0,0.0,0.0,False,False
2026-05-13T18:28:23.175,1785,59.27391491852177,-0.0002503829962396971,-0.0004703515579215484,1.9987000226974487,59.27391491852177,0.002462201751768589,-0.005018721334636211,9.809922218322754,0.0,0.0,0.0,180.4325199079582,0.0,0.0,0.0,0.0,False,False
2026-05-13T18:28:23.231,1786,59.32440958193911,-0.0002503829962396971,-0.0004703515579215484,1.9987000226974487,59.32440958193911,9.431736543774605e-06,0.0012499644653871655,9.810078620910645,0.0,0.0,0.0,180.4325199079582,0.0,0.0,0.0,0.0,False,False
2026-05-13T18:28:23.437,1790,59.586356826344854,-0.0002503829962396971,-0.0004703515579215484,1.9987000226974487,59.586356826344854,-0.0012499644653871655,9.431736543774605e-06,9.809922218322754,0.0,0.0,0.0,180.4325199079582,0.0,0.0,0.0,0.0,False,False
2026-05-13T18:28:23.486,1791,59.63530669383181,-0.0002503829962396971,-0.0004703515579215484,1.9987000226974487,59.586356826344854,-0.0012499644653871655,9.431736543774605e-06,9.809922218322754,0.0,0.0,0.0,180.4325199079582,0.0,0.0,0.0,0.0,False,False
2026-05-13T18:28:23.681,1795,59.83031694985402,-0.0002503829962396971,-0.0004703515579215484,1.9987000226974487,59.83031694985402,0.0,0.0,9.810078620910645,0.0,0.0,0.0,180.4325199079582,0.0,0.0,0.0,0.0,False,False
2026-05-13T18:28:23.726,1796,59.83031694985402,-0.0002503829962396971,-0.0004703515579215484,1.9987000226974487,59.83031694985402,0.0,0.0,9.810078620910645,0.0,0.0,0.0,180.4325199079582,0.0,0.0,0.0,0.0,False,False
2026-05-13T18:28:23.914,1800,60.06298417619837,-0.0002503829962396971,-0.0004703515579215484,1.9987000226974487,60.01317488796485,-1.886347308754921e-05,-0.002499928930774331,9.809844017028809,0.0,0.0,0.0,180.4325199079582,0.0,0.0,0.0,0.0,False,False
2026-05-13T18:28:23.963,1801,60.111971743623144,-0.0002503829962396971,-0.0004703515579215484,1.9987000226974487,60.111971743623144,0.0012499644653871655,-9.431736543774605e-06,9.809844017028809,0.0,0.0,0.0,180.4325199079582,0.0,0.0,0.0,0.0,False,False
2026-05-13T18:28:24.159,1805,60.26218635983241,-0.0002503829962396971,-0.0004703515579215484,1.9987000226974487,60.26218635983241,-2.8295675292611122e-05,-0.0037498935125768185,9.809883117675781,0.0,0.0,0.0,180.4325199079582,0.0,0.0,0.0,0.0,False,False
2026-05-13T18:28:24.210,1806,60.30874720237625,-0.0002503829962396971,-0.0004703515579215484,1.9987000226974487,60.30874720237625,-0.002499928930774331,1.886347308754921e-05,9.810078620910645,0.0,0.0,0.0,180.4325199079582,0.0,0.0,0.0,0.0,False,False
2026-05-13T18:28:24.397,1810,60.54606868348492,-0.0002503829962396971,-0.0004703515579215484,1.9987000226974487,60.54606868348492,0.0,0.0,9.8100004196167,0.0,0.0,0.0,180.4325199079582,0.0,0.0,0.0,0.0,False,False
2026-05-13T18:28:24.444,1811,60.54606868348492,-0.0002503829962396971,-0.0004703515579215484,1.9987000226974487,60.54606868348492,0.0,0.0,9.8100004196167,0.0,0.0,0.0,180.4325199079582,0.0,0.0,0.0,0.0,False,False
2026-05-13T18:28:24.728,1816,60.87716135031951,-0.0002503829962396971,-0.0004703515579215484,1.9987000226974487,60.87716135031951,0.0,0.0,9.810039520263672,0.0,0.0,0.0,180.4325199079582,0.0,0.0,0.0,0.0,False,False
2026-05-13T18:28:24.915,1820,61.01859156809223,-0.0002503829962396971,-0.0004703515579215484,1.9987000226974487,61.01859156809223,-1.886347308754921e-05,-0.002499928930774331,9.809922218322754,0.0,0.0,0.0,180.4325199079582,0.0,0.0,0.0,0.0,False,False
2026-05-13T18:28:24.962,1821,61.064425248870975,-0.0002503829962396971,-0.0004703515579215484,1.9987000226974487,61.064425248870975,0.0,0.0,9.8100004196167,0.0,0.0,0.0,180.4325199079582,0.0,0.0,0.0,0.0,False,False
2026-05-13T18:28:25.153,1825,61.30214627481473,-0.0002503829962396971,-0.0004703515579215484,1.9987000226974487,61.25390118754876,-0.0012499644653871655,9.431736543774605e-06,9.8100004196167,0.0,0.0,0.0,180.4325199079582,0.0,0.0,0.0,0.0,False,False
2026-05-13T18:28:25.200,1826,61.30214627481473,-0.0002503829962396971,-0.0004703515579215484,1.9987000226974487,61.30214627481473,-0.0024810656905174255,0.0025187924038618803,9.810078620910645,0.0,0.0,0.0,180.4325199079582,0.0,0.0,0.0,0.0,False,False
2026-05-13T18:28:25.383,1830,61.48730769402755,-0.0002503829962396971,-0.0004703515579215484,1.9987000226974487,61.48730769402755,0.0012499644653871655,-9.431736543774605e-06,9.8100004196167,0.0,0.0,0.0,180.4325199079582,0.0,0.0,0.0,0.0,False,False
2026-05-13T18:28:25.429,1831,61.53212645671738,-0.0002503829962396971,-0.0004703515579215484,1.9987000226974487,61.53212645671738,0.002462201751768589,-0.005018721334636211,9.8100004196167,0.0,0.0,0.0,180.4325199079582,0.0,0.0,0.0,0.0,False,False
2026-05-13T18:28:25.617,1835,61.71915704406274,-0.0002503829962396971,-0.0004703515579215484,1.9987000226974487,61.71915704406274,-0.002462201751768589,0.005018721334636211,9.81015682220459,0.0,0.0,0.0,180.4325199079582,0.0,0.0,0.0,0.0,False,False
2026-05-13T18:28:25.670,1836,61.81958697013033,-0.0002503829962396971,-0.0004703515579215484,1.9987000226974487,61.81958697013033,0.0,0.0,9.810078620910645,0.0,0.0,0.0,180.4325199079582,0.0,0.0,0.0,0.0,False,False
2026-05-13T18:28:25.855,1840,62.003908086786396,-0.0002503829962396971,-0.0004703515579215484,1.9987000226974487,62.003908086786396,0.0,0.0,9.8100004196167,0.0,0.0,0.0,180.4325199079582,0.0,0.0,0.0,0.0,False,False
2026-05-13T18:28:25.901,1841,62.003908086786396,-0.0002503829962396971,-0.0004703515579215484,1.9987000226974487,62.003908086786396,0.0,0.0,9.8100004196167,0.0,0.0,0.0,180.4325199079582,0.0,0.0,0.0,0.0,False,False
2026-05-13T18:28:26.086,1845,62.18902991733921,-0.0002503829962396971,-0.0004703515579215484,1.9987000226974487,62.18902991733921,-0.002462201751768589,0.005018721334636211,9.810235023498535,0.0,0.0,0.0,180.4325199079582,0.0,0.0,0.0,0.0,False,False
2026-05-13T18:28:26.133,1846,62.282095827380545,-0.0002503829962396971,-0.0004703515579215484,1.9987000226974487,62.282095827380545,0.0,0.0,9.810078620910645,0.0,0.0,0.0,180.4325199079582,0.0,0.0,0.0,0.0,False,False
2026-05-13T18:28:26.325,1850,62.42651202178968,-0.0002503829962396971,-0.0004703515579215484,1.9987000226974487,62.42651202178968,-0.0012688279384747148,-0.0024904971942305565,9.810078620910645,0.0,0.0,0.0,180.4325199079582,0.0,0.0,0.0,0.0,False,False
2026-05-13T18:28:26.374,1851,62.52284276134742,-0.0002503829962396971,-0.0004703515579215484,1.9987000226974487,62.47370947919262,-0.0012499644653871655,9.431736543774605e-06,9.810078620910645,0.0,0.0,0.0,180.4325199079582,0.0,0.0,0.0,0.0,False,False
2026-05-13T18:28:26.559,1855,62.70817285052908,-0.0002503829962396971,-0.0004703515579215484,1.9987000226974487,62.66214510075224,-1.886347308754921e-05,-0.002499928930774331,9.8100004196167,0.0,0.0,0.0,180.4325199079582,0.0,0.0,0.0,0.0,False,False
2026-05-13T18:28:26.607,1856,62.75645274318231,-0.0002503829962396971,-0.0004703515579215484,1.9987000226974487,62.70817285052908,0.0012122374027967453,-0.0050092898309230804,9.8100004196167,0.0,0.0,0.0,180.4325199079582,0.0,0.0,0.0,0.0,False,False
2026-05-13T18:28:26.794,1860,62.943232264588005,-0.0002503829962396971,-0.0004703515579215484,1.9987000226974487,62.943232264588005,-1.886347308754921e-05,-0.002499928930774331,9.810078620910645,0.0,0.0,0.0,180.4325199079582,0.0,0.0,0.0,0.0,False,False
2026-05-13T18:28:26.842,1861,62.99116829804552,-0.0002503829962396971,-0.0004703515579215484,1.9987000226974487,62.99116829804552,0.0,0.0,9.810078620910645,0.0,0.0,0.0,180.4325199079582,0.0,0.0,0.0,0.0,False,False
2026-05-13T18:28:27.027,1865,63.131241873124964,-0.0002503829962396971,-0.0004703515579215484,1.9987000226974487,63.131241873124964,0.0012311008758842945,-0.0025093606673181057,9.809922218322754,0.0,0.0,0.0,180.4325199079582,0.0,0.0,0.0,0.0,False,False
2026-05-13T18:28:27.075,1866,63.224238496492035,-0.0002503829962396971,-0.0004703515579215484,1.9987000226974487,63.17644478775037,1.886347308754921e-05,0.002499928930774331,9.8100004196167,0.0,0.0,0.0,180.4325199079582,0.0,0.0,0.0,0.0,False,False
2026-05-13T18:28:27.260,1870,63.36110014490259,-0.0002503829962396971,-0.0004703515579215484,1.9987000226974487,63.36110014490259,0.0,0.0,9.809922218322754,0.0,0.0,0.0,180.4325199079582,0.0,0.0,0.0,0.0,False,False
2026-05-13T18:28:27.310,1871,63.4092759454943,-0.0002503829962396971,-0.0004703515579215484,1.9987000226974487,63.4092759454943,0.0012499644653871655,-9.431736543774605e-06,9.8100004196167,0.0,0.0,0.0,180.4325199079582,0.0,0.0,0.0,0.0,False,False
2026-05-13T18:28:27.499,1875,63.647935189525015,-0.0002503829962396971,-0.0004703515579215484,1.9987000226974487,63.60359066001547,-0.0037121661007404327,0.005028153769671917,9.81015682220459,0.0,0.0,0.0,180.4325199079582,0.0,0.0,0.0,0.0,False,False
2026-05-13T18:28:27.546,1876,63.647935189525015,-0.0002503829962396971,-0.0004703515579215484,1.9987000226974487,63.647935189525015,-0.0012311008758842945,0.0025093606673181057,9.8100004196167,0.0,0.0,0.0,180.4325199079582,0.0,0.0,0.0,0.0,False,False
2026-05-13T18:28:27.734,1880,63.83817147112859,-0.0002503829962396971,-0.0004703515579215484,1.9987000226974487,63.83817147112859,0.0,0.0,9.8100004196167,0.0,0.0,0.0,180.4325199079582,0.0,0.0,0.0,0.0,False,False
2026-05-13T18:28:27.782,1881,63.93111737094296,-0.0002503829962396971,-0.0004703515579215484,1.9987000226974487,63.88352595664037,-1.886347308754921e-05,-0.002499928930774331,9.809844017028809,0.0,0.0,0.0,180.4325199079582,0.0,0.0,0.0,0.0,False,False
2026-05-13T18:28:27.964,1885,64.1138075406052,-0.0002503829962396971,-0.0004703515579215484,1.9987000226974487,64.06898463911784,-0.002499928930774331,1.886347308754921e-05,9.81015682220459,0.0,0.0,0.0,180.4325199079582,0.0,0.0,0.0,0.0,False,False
2026-05-13T18:28:28.010,1886,64.1138075406052,-0.0002503829962396971,-0.0004703515579215484,1.9987000226974487,64.1138075406052,0.0,0.0,9.809922218322754,0.0,0.0,0.0,180.4325199079582,0.0,0.0,0.0,0.0,False,False
2026-05-13T18:28:28.197,1890,64.34608785084856,-0.0002503829962396971,-0.0004703515579215484,1.9987000226974487,64.34608785084856,-0.0012311008758842945,0.0025093606673181057,9.810078620910645,0.0,0.0,0.0,180.4325199079582,0.0,0.0,0.0,0.0,False,False
2026-05-13T18:28:28.243,1891,64.34608785084856,-0.0002503829962396971,-0.0004703515579215484,1.9987000226974487,64.34608785084856,-0.0012311008758842945,0.0025093606673181057,9.810078620910645,0.0,0.0,0.0,180.4325199079582,0.0,0.0,0.0,0.0,False,False
2026-05-13T18:28:28.438,1895,64.54214127011073,-0.0002503829962396971,-0.0004703515579215484,1.9987000226974487,64.54214127011073,0.0012499644653871655,-9.431736543774605e-06,9.809922218322754,0.0,0.0,0.0,180.4325199079582,0.0,0.0,0.0,0.0,False,False
2026-05-13T18:28:28.487,1896,64.63607230059279,-0.0002503829962396971,-0.0004703515579215484,1.9987000226974487,64.63607230059279,-0.002462201751768589,0.005018721334636211,9.810078620910645,0.0,0.0,0.0,180.4325199079582,0.0,0.0,0.0,0.0,False,False
2026-05-13T18:28:28.669,1900,64.77367916352523,-0.0002503829962396971,-0.0004703515579215484,1.9987000226974487,64.77367916352523,-0.0012499644653871655,9.431736543774605e-06,9.8100004196167,0.0,0.0,0.0,180.4325199079582,0.0,0.0,0.0,0.0,False,False
2026-05-13T18:28:28.719,1901,64.81855966172589,-0.0002503829962396971,-0.0004703515579215484,1.9987000226974487,64.81855966172589,0.0024810656905174255,-0.0025187924038618803,9.809922218322754,0.0,0.0,0.0,180.4325199079582,0.0,0.0,0.0,0.0,False,False
2026-05-13T18:28:28.900,1905,65.0047147685982,-0.0002503829962396971,-0.0004703515579215484,1.9987000226974487,65.0047147685982,-0.0012499644653871655,9.431736543774605e-06,9.810078620910645,0.0,0.0,0.0,180.4325199079582,0.0,0.0,0.0,0.0,False,False
2026-05-13T18:28:28.945,1906,65.04922689891828,-0.0002503829962396971,-0.0004703515579215484,1.9987000226974487,65.04922689891828,0.0024810656905174255,-0.0025187924038618803,9.8100004196167,0.0,0.0,0.0,180.4325199079582,0.0,0.0,0.0,0.0,False,False
2026-05-13T18:28:29.136,1910,65.28533500827325,-0.0002503829962396971,-0.0004703515579215484,1.9987000226974487,65.23585109434498,-0.0012311008758842945,0.0025093606673181057,9.81015682220459,0.0,0.0,0.0,180.4325199079582,0.0,0.0,0.0,0.0,False,False
2026-05-13T18:28:29.184,1911,65.33356828264368,-0.0002503829962396971,-0.0004703515579215484,1.9987000226974487,65.28533500827325,0.0,0.0,9.810078620910645,0.0,0.0,0.0,180.4325199079582,0.0,0.0,0.0,0.0,False,False
2026-05-13T18:28:29.364,1915,65.51335195101274,-0.0002503829962396971,-0.0004703515579215484,1.9987000226974487,65.51335195101274,-0.0037121661007404327,0.005028153769671917,9.81015682220459,0.0,0.0,0.0,180.4325199079582,0.0,0.0,0.0,0.0,False,False
2026-05-13T18:28:29.410,1916,65.51335195101274,-0.0002503829962396971,-0.0004703515579215484,1.9987000226974487,65.51335195101274,-0.0037121661007404327,0.005028153769671917,9.81015682220459,0.0,0.0,0.0,180.4325199079582,0.0,0.0,0.0,0.0,False,False
2026-05-13T18:28:29.601,1920,65.7496568562783,-0.0002503829962396971,-0.0004703515579215484,1.9987000226974487,65.7496568562783,-0.0012499644653871655,9.431736543774605e-06,9.810039520263672,0.0,0.0,0.0,180.4325199079582,0.0,0.0,0.0,0.0,False,False
2026-05-13T18:28:29.648,1921,65.79683523646963,-0.0002503829962396971,-0.0004703515579215484,1.9987000226974487,65.7496568562783,-0.0012499644653871655,9.431736543774605e-06,9.810039520263672,0.0,0.0,0.0,180.4325199079582,0.0,0.0,0.0,0.0,False,False
2026-05-13T18:28:29.833,1925,65.93669981903804,-0.0002503829962396971,-0.0004703515579215484,1.9987000226974487,65.93669981903804,-0.0012499644653871655,9.431736543774605e-06,9.8100004196167,0.0,0.0,0.0,180.4325199079582,0.0,0.0,0.0,0.0,False,False
2026-05-13T18:28:29.880,1926,65.98265458665264,-0.0002503829962396971,-0.0004703515579215484,1.9987000226974487,65.98265458665264,0.0037121661007404327,-0.005028153769671917,9.809844017028809,0.0,0.0,0.0,180.4325199079582,0.0,0.0,0.0,0.0,False,False
2026-05-13T18:28:30.061,1930,66.16579962916148,-0.0002503829962396971,-0.0004703515579215484,1.9987000226974487,66.16579962916148,-0.0012499644653871655,9.431736543774605e-06,9.810078620910645,0.0,0.0,0.0,180.4325199079582,0.0,0.0,0.0,0.0,False,False
2026-05-13T18:28:30.108,1931,66.21053704268706,-0.0002503829962396971,-0.0004703515579215484,1.9987000226974487,66.21053704268706,0.0036933021619915962,-0.007528082467615604,9.809922218322754,0.0,0.0,0.0,180.4325199079582,0.0,0.0,0.0,0.0,False,False
2026-05-13T18:28:30.291,1935,66.39486106506956,-0.0002503829962396971,-0.0004703515579215484,1.9987000226974487,66.39486106506956,0.002462201751768589,-0.005018721334636211,9.809922218322754,0.0,0.0,0.0,180.4325199079582,0.0,0.0,0.0,0.0,False,False
2026-05-13T18:28:30.337,1936,66.4862796182133,-0.0002503829962396971,-0.0004703515579215484,1.9987000226974487,66.43969577200187,0.0012499644653871655,-9.431736543774605e-06,9.8100004196167,0.0,0.0,0.0,180.4325199079582,0.0,0.0,0.0,0.0,False,False
2026-05-13T18:28:30.526,1940,66.67564246452821,-0.0002503829962396971,-0.0004703515579215484,1.9987000226974487,66.67564246452821,0.0,0.0,9.809922218322754,0.0,0.0,0.0,180.4325199079582,0.0,0.0,0.0,0.0,False,False
2026-05-13T18:28:30.574,1941,66.67564246452821,-0.0002503829962396971,-0.0004703515579215484,1.9987000226974487,66.67564246452821,0.0,0.0,9.809922218322754,0.0,0.0,0.0,180.4325199079582,0.0,0.0,0.0,0.0,False,False
2026-05-13T18:28:30.769,1945,66.8715091424383,-0.0002503829962396971,-0.0004703515579215484,1.9987000226974487,66.8715091424383,-0.0037215976044535637,0.0037781891878694296,9.810078620910645,0.0,0.0,0.0,180.4325199079582,0.0,0.0,0.0,0.0,False,False
2026-05-13T18:28:30.815,1946,66.9644761124946,-0.0002503829962396971,-0.0004703515579215484,1.9987000226974487,66.9644761124946,0.0012122374027967453,-0.0050092898309230804,9.8100004196167,0.0,0.0,0.0,180.4325199079582,0.0,0.0,0.0,0.0,False,False
2026-05-13T18:28:31.005,1950,67.10608775190485,-0.0002503829962396971,-0.0004703515579215484,1.9987000226974487,67.10608775190485,1.886347308754921e-05,0.002499928930774331,9.810078620910645,0.0,0.0,0.0,180.4325199079582,0.0,0.0,0.0,0.0,False,False
2026-05-13T18:28:31.052,1951,67.15421421847714,-0.0002503829962396971,-0.0004703515579215484,1.9987000226974487,67.15421421847714,0.0012499644653871655,-9.431736543774605e-06,9.8100004196167,0.0,0.0,0.0,180.4325199079582,0.0,0.0,0.0,0.0,False,False
2026-05-13T18:28:31.238,1955,67.34255729637516,-0.0002503829962396971,-0.0004703515579215484,1.9987000226974487,67.34255729637516,0.0012311008758842945,-0.0025093606673181057,9.8100004196167,0.0,0.0,0.0,180.4325199079582,0.0,0.0,0.0,0.0,False,False
2026-05-13T18:28:31.289,1956,67.43806429601682,-0.0002503829962396971,-0.0004703515579215484,1.9987000226974487,67.38783641553891,-0.0012688279384747148,-0.0024904971942305565,9.809922218322754,0.0,0.0,0.0,180.4325199079582,0.0,0.0,0.0,0.0,False,False
2026-05-13T18:28:31.473,1960,67.57752441636694,-0.0002503829962396971,-0.0004703515579215484,1.9987000226974487,67.57752441636694,0.002499928930774331,-1.886347308754921e-05,9.809922218322754,0.0,0.0,0.0,180.4325199079582,0.0,0.0,0.0,0.0,False,False
2026-05-13T18:28:31.519,1961,67.62251194960845,-0.0002503829962396971,-0.0004703515579215484,1.9987000226974487,67.62251194960845,-0.0024810656905174255,0.0025187924038618803,9.810078620910645,0.0,0.0,0.0,180.4325199079582,0.0,0.0,0.0,0.0,False,False
2026-05-13T18:28:31.705,1965,67.80820526949537,-0.0002503829962396971,-0.0004703515579215484,1.9987000226974487,67.80820526949537,0.0,0.0,9.810078620910645,0.0,0.0,0.0,180.4325199079582,0.0,0.0,0.0,0.0,False,False
2026-05-13T18:28:31.751,1966,67.900891799698,-0.0002503829962396971,-0.0004703515579215484,1.9987000226974487,67.85439487195981,0.0012499644653871655,-9.431736543774605e-06,9.8100004196167,0.0,0.0,0.0,180.4325199079582,0.0,0.0,0.0,0.0,False,False
2026-05-13T18:28:31.939,1970,68.04333135134948,-0.0002503829962396971,-0.0004703515579215484,1.9987000226974487,68.04333135134948,0.0,0.0,9.8100004196167,0.0,0.0,0.0,180.4325199079582,0.0,0.0,0.0,0.0,False,False
2026-05-13T18:28:31.987,1971,68.13657113186491,-0.0002503829962396971,-0.0004703515579215484,1.9987000226974487,68.13657113186491,0.0012311008758842945,-0.0025093606673181057,9.809922218322754,0.0,0.0,0.0,180.4325199079582,0.0,0.0,0.0,0.0,False,False
2026-05-13T18:28:32.168,1975,68.27307887024654,-0.0002503829962396971,-0.0004703515579215484,1.9987000226974487,68.27307887024654,0.0,0.0,9.81015682220459,0.0,0.0,0.0,180.4325199079582,0.0,0.0,0.0,0.0,False,False
2026-05-13T18:28:32.215,1976,68.3646985108353,-0.0002503829962396971,-0.0004703515579215484,1.9987000226974487,68.31768893472326,-1.886347308754921e-05,-0.002499928930774331,9.809844017028809,0.0,0.0,0.0,180.4325199079582,0.0,0.0,0.0,0.0,False,False
2026-05-13T18:28:32.400,1980,68.50237206391466,-0.0002503829962396971,-0.0004703515579215484,1.9987000226974487,68.50237206391466,-0.0024810656905174255,0.0025187924038618803,9.8100004196167,0.0,0.0,0.0,180.4325199079582,0.0,0.0,0.0,0.0,False,False
2026-05-13T18:28:32.446,1981,68.54885250724328,-0.0002503829962396971,-0.0004703515579215484,1.9987000226974487,68.54885250724328,0.0024433378130197525,-0.007518650498241186,9.809765815734863,0.0,0.0,0.0,180.4325199079582,0.0,0.0,0.0,0.0,False,False
2026-05-13T18:28:32.632,1985,68.78134681306256,-0.0002503829962396971,-0.0004703515579215484,1.9987000226974487,68.73510921023262,0.0,0.0,9.809922218322754,0.0,0.0,0.0,180.4325199079582,0.0,0.0,0.0,0.0,False,False
2026-05-13T18:28:32.680,1986,68.82889206729305,-0.0002503829962396971,-0.0004703515579215484,1.9987000226974487,68.78134681306256,0.0,0.0,9.8100004196167,0.0,0.0,0.0,180.4325199079582,0.0,0.0,0.0,0.0,False,False
2026-05-13T18:28:32.865,1990,69.01453348271025,-0.0002503829962396971,-0.0004703515579215484,1.9987000226974487,69.01453348271025,-0.0012311008758842945,0.0025093606673181057,9.809922218322754,0.0,0.0,0.0,180.4325199079582,0.0,0.0,0.0,0.0,False,False
2026-05-13T18:28:32.914,1991,69.01453348271025,-0.0002503829962396971,-0.0004703515579215484,1.9987000226974487,69.01453348271025,-0.0012311008758842945,0.0025093606673181057,9.809922218322754,0.0,0.0,0.0,180.4325199079582,0.0,0.0,0.0,0.0,False,False
2026-05-13T18:28:33.108,1995,69.25737032316101,-0.0002503829962396971,-0.0004703515579215484,1.9987000226974487,69.21179635099543,-0.0012499644653871655,9.431736543774605e-06,9.8100004196167,0.0,0.0,0.0,180.4325199079582,0.0,0.0,0.0,0.0,False,False
2026-05-13T18:28:33.153,1996,69.25737032316101,-0.0002503829962396971,-0.0004703515579215484,1.9987000226974487,69.25737032316101,-1.886347308754921e-05,-0.002499928930774331,9.8100004196167,0.0,0.0,0.0,180.4325199079582,0.0,0.0,0.0,0.0,False,False
2026-05-13T18:28:33.347,2000,69.49691892064584,-0.0002503829962396971,-0.0004703515579215484,1.9987000226974487,69.45128013215435,-0.0012405328452587128,0.0012593962019309402,9.8100004196167,0.0,0.0,0.0,180.4325199079582,0.0,0.0,0.0,0.0,False,False
2026-05-13T18:28:33.395,2001,69.49691892064584,-0.0002503829962396971,-0.0004703515579215484,1.9987000226974487,69.49691892064584,-0.0011933734640479088,0.007509218994528055,9.810078620910645,0.0,0.0,0.0,180.4325199079582,0.0,0.0,0.0,0.0,False,False
2026-05-13T18:28:33.587,2005,69.68997443489206,-0.0002503829962396971,-0.0004703515579215484,1.9987000226974487,69.68997443489206,-0.0012499644653871655,9.431736543774605e-06,9.809922218322754,0.0,0.0,0.0,180.4325199079582,0.0,0.0,0.0,0.0,False,False
2026-05-13T18:28:33.633,2006,69.73563984430803,-0.0002503829962396971,-0.0004703515579215484,1.9987000226974487,69.73563984430803,-0.0012311008758842945,0.0025093606673181057,9.8100004196167,0.0,0.0,0.0,180.4325199079582,0.0,0.0,0.0,0.0,False,False
2026-05-13T18:28:33.818,2010,69.92244758106244,-0.0002503829962396971,-0.0004703515579215484,1.9987000226974487,69.92244758106244,0.0,0.0,9.8100004196167,0.0,0.0,0.0,180.4325199079582,0.0,0.0,0.0,0.0,False,False
2026-05-13T18:28:33.864,2011,69.96793741754664,-0.0002503829962396971,-0.0004703515579215484,1.9987000226974487,69.96793741754664,-0.0011933734640479088,0.007509218994528055,9.81015682220459,0.0,0.0,0.0,180.4325199079582,0.0,0.0,0.0,0.0,False,False
2026-05-13T18:28:34.046,2015,70.1948015580274,-0.0002503829962396971,-0.0004703515579215484,1.9987000226974487,70.14866338692082,0.0037310300394892693,-0.002528224606066942,9.8100004196167,0.0,0.0,0.0,180.4325199079582,0.0,0.0,0.0,0.0,False,False
2026-05-13T18:28:34.097,2016,70.1948015580274,-0.0002503829962396971,-0.0004703515579215484,1.9987000226974487,70.1948015580274,-0.002462201751768589,0.005018721334636211,9.810078620910645,0.0,0.0,0.0,180.4325199079582,0.0,0.0,0.0,0.0,False,False
2026-05-13T18:28:34.284,2020,70.38789742089284,-0.0002503829962396971,-0.0004703515579215484,1.9987000226974487,70.38789742089284,0.0012499644653871655,-9.431736543774605e-06,9.810078620910645,0.0,0.0,0.0,180.4325199079582,0.0,0.0,0.0,0.0,False,False
2026-05-13T18:28:34.331,2021,70.43346941492928,-0.0002503829962396971,-0.0004703515579215484,1.9987000226974487,70.43346941492928,0.0012499644653871655,-9.431736543774605e-06,9.809922218322754,0.0,0.0,0.0,180.4325199079582,0.0,0.0,0.0,0.0,False,False
2026-05-13T18:28:34.514,2025,70.61628713853133,-0.0002503829962396971,-0.0004703515579215484,1.9987000226974487,70.61628713853133,1.886347308754921e-05,0.002499928930774331,9.810078620910645,0.0,0.0,0.0,180.4325199079582,0.0,0.0,0.0,0.0,False,False
2026-05-13T18:28:34.560,2026,70.66304686687363,-0.0002503829962396971,-0.0004703515579215484,1.9987000226974487,70.66304686687363,-0.002462201751768589,0.005018721334636211,9.81015682220459,0.0,0.0,0.0,180.4325199079582,0.0,0.0,0.0,0.0,False,False
2026-05-13T18:28:34.752,2030,70.8536601143278,-0.0002503829962396971,-0.0004703515579215484,1.9987000226974487,70.8536601143278,0.0,0.0,9.8100004196167,0.0,0.0,0.0,180.4325199079582,0.0,0.0,0.0,0.0,False,False
2026-05-13T18:28:34.803,2031,70.95211827031744,-0.0002503829962396971,-0.0004703515579215484,1.9987000226974487,70.90095480553282,0.0012122374027967453,-0.0050092898309230804,9.809844017028809,0.0,0.0,0.0,180.4325199079582,0.0,0.0,0.0,0.0,False,False
2026-05-13T18:28:35.001,2035,71.1020850653149,-0.0002503829962396971,-0.0004703515579215484,1.9987000226974487,71.1020850653149,-0.0012499644653871655,9.431736543774605e-06,9.810078620910645,0.0,0.0,0.0,180.4325199079582,0.0,0.0,0.0,0.0,False,False
2026-05-13T18:28:35.050,2036,71.15024340547097,-0.0002503829962396971,-0.0004703515579215484,1.9987000226974487,71.15024340547097,1.886347308754921e-05,0.002499928930774331,9.810078620910645,0.0,0.0,0.0,180.4325199079582,0.0,0.0,0.0,0.0,False,False
2026-05-13T18:28:35.255,2040,71.3508240396477,-0.0002503829962396971,-0.0004703515579215484,1.9987000226974487,71.3508240396477,0.0012122374027967453,-0.0050092898309230804,9.809922218322754,0.0,0.0,0.0,180.4325199079582,0.0,0.0,0.0,0.0,False,False
2026-05-13T18:28:35.305,2041,71.45438445753825,-0.0002503829962396971,-0.0004703515579215484,1.9987000226974487,71.40456545002235,-0.0012499644653871655,9.431736543774605e-06,9.809961318969727,0.0,0.0,0.0,180.4325199079582,0.0,0.0,0.0,0.0,False,False
2026-05-13T18:28:35.499,2045,71.64800494558585,-0.0002503829962396971,-0.0004703515579215484,1.9987000226974487,71.60111654944194,1.886347308754921e-05,0.002499928930774331,9.810078620910645,0.0,0.0,0.0,180.4325199079582,0.0,0.0,0.0,0.0,False,False
2026-05-13T18:28:35.547,2046,71.69672919086588,-0.0002503829962396971,-0.0004703515579215484,1.9987000226974487,71.64800494558585,-0.0024810656905174255,0.0025187924038618803,9.810078620910645,0.0,0.0,0.0,180.4325199079582,0.0,0.0,0.0,0.0,False,False
2026-05-13T18:28:35.736,2050,71.8369001934625,-0.0002503829962396971,-0.0004703515579215484,1.9987000226974487,71.8369001934625,0.0,0.0,9.8100004196167,0.0,0.0,0.0,180.4325199079582,0.0,0.0,0.0,0.0,False,False
2026-05-13T18:28:35.786,2051,71.88525281868351,-0.0002503829962396971,-0.0004703515579215484,1.9987000226974487,71.88525281868351,0.0037121661007404327,-0.005028153769671917,9.809844017028809,0.0,0.0,0.0,180.4325199079582,0.0,0.0,0.0,0.0,False,False
2026-05-13T18:28:35.985,2055,72.13408758885635,-0.0002503829962396971,-0.0004703515579215484,1.9987000226974487,72.13408758885635,-0.0012311008758842945,0.0025093606673181057,9.81015682220459,0.0,0.0,0.0,180.4325199079582,0.0,0.0,0.0,0.0,False,False
2026-05-13T18:28:36.035,2056,72.18438540420902,-0.0002503829962396971,-0.0004703515579215484,1.9987000226974487,72.13408758885635,-0.0012311008758842945,0.0025093606673181057,9.81015682220459,0.0,0.0,0.0,180.4325199079582,0.0,0.0,0.0,0.0,False,False
2026-05-13T18:28:36.240,2060,72.38876117042673,-0.0002503829962396971,-0.0004703515579215484,1.9987000226974487,72.33524579949153,-1.886347308754921e-05,-0.002499928930774331,9.809883117675781,0.0,0.0,0.0,180.4325199079582,0.0,0.0,0.0,0.0,False,False
2026-05-13T18:28:36.292,2061,72.38876117042673,-0.0002503829962396971,-0.0004703515579215484,1.9987000226974487,72.38876117042673,0.0012405328452587128,-0.0012593962019309402,9.8100004196167,0.0,0.0,0.0,180.4325199079582,0.0,0.0,0.0,0.0,False,False
2026-05-13T18:28:36.482,2065,72.58603952846897,-0.0002503829962396971,-0.0004703515579215484,1.9987000226974487,72.58603952846897,-0.002462201751768589,0.005018721334636211,9.81015682220459,0.0,0.0,0.0,180.4325199079582,0.0,0.0,0.0,0.0,False,False
2026-05-13T18:28:36.531,2066,72.63123752571119,-0.0002503829962396971,-0.0004703515579215484,1.9987000226974487,72.63123752571119,0.002499928930774331,-1.886347308754921e-05,9.809922218322754,0.0,0.0,0.0,180.4325199079582,0.0,0.0,0.0,0.0,False,False
2026-05-13T18:28:36.730,2070,72.87964309773815,-0.0002503829962396971,-0.0004703515579215484,1.9987000226974487,72.87964309773815,2.8295675292611122e-05,0.0037498935125768185,9.810117721557617,0.0,0.0,0.0,180.4325199079582,0.0,0.0,0.0,0.0,False,False
2026-05-13T18:28:36.786,2071,72.9349007683195,-0.0002503829962396971,-0.0004703515579215484,1.9987000226974487,72.9349007683195,0.0012405328452587128,-0.0012593962019309402,9.809883117675781,0.0,0.0,0.0,180.4325199079582,0.0,0.0,0.0,0.0,False,False
2026-05-13T18:28:37.078,2076,73.1536288002826,-0.0002503829962396971,-0.0004703515579215484,1.9987000226974487,73.1536288002826,-0.0012405328452587128,0.0012593962019309402,9.810039520263672,0.0,0.0,0.0,180.4325199079582,0.0,0.0,0.0,0.0,False,False
2026-05-13T18:28:37.287,2080,73.43598577774537,-0.0002503829962396971,-0.0004703515579215484,1.9987000226974487,73.3874761985935,-0.0024810656905174255,0.0025187924038618803,9.810117721557617,0.0,0.0,0.0,180.4325199079582,0.0,0.0,0.0,0.0,False,False
